Legend: waktu, epoch 1970, epoch 1980, latitude, longitude, altitude, gx, gy, gz, ax, ay, az 
(2023-05-26_16-35-23.128, 1685093723.12786, 1369128923.12786, 0, 0, 0, -0.004243694245815277, 0.0003310535103082657, -0.00798673927783966, 0.818079948425293, 0.025626763701438904, -9.81110954284668) 
(2023-05-26_16-35-24.577, 1685093724.572734, 1369128924.572734, -7.3132195, 112.789849, 27.5, -0.012806632556021214, 0.0057948287576437, -0.003764263354241848, 0.8181799650192261, -0.06997949630022049, -9.82553768157959) 
(2023-05-26_16-35-24.688, 1685093724.684272, 1369128924.684272, -7.3132195, 112.789849, 27.5, -0.004787910729646683, 0.002730865031480789, 0.007869469933211803, 0.8132975101470947, 0.05431016534566879, -9.811086654663086) 
(2023-05-26_16-35-24.797, 1685093724.795428, 1369128924.795428, -7.3132195, 112.789849, 27.5, 0.0013468097895383835, 0.0015411525964736938, 0.006065164692699909, 0.8371621370315552, 0.00169314444065094, -9.839884757995605) 
(2023-05-26_16-35-24.891, 1685093724.888625, 1369128924.888625, -7.3132195, 112.789849, 27.5, -0.005439324304461479, -0.0009375419467687607, 0.002997106872498989, 0.7419884204864502, 0.05434637516736984, -9.85411548614502) 
(2023-05-26_16-35-24.999, 1685093724.998767, 1369128924.998767, -7.3132195, 112.789849, 27.5, 0.0013293866068124771, 0.0003239735960960388, 0.003017890267074108, 0.7514755725860596, 0.011354312300682068, -9.796674728393555) 
(2023-05-26_16-35-25.096, 1685093725.094296, 1369128925.094296, -7.3132195, 112.789849, 27.5, -0.0036298278719186783, -0.000281263142824173, -0.0073722731322050095, 0.8608438968658447, -0.003049023449420929, -9.744118690490723) 
(2023-05-26_16-35-25.191, 1685093725.188802, 1369128925.188802, -7.3132195, 112.789849, 27.5, 0.0001163780689239502, 0.0009194165468215942, 0.006672886200249195, 0.7657222747802734, -0.022088028490543365, -9.748814582824707) 
(2023-05-26_16-35-25.300, 1685093725.298323, 1369128925.298323, -7.3132195, 112.789849, 27.5, -0.003642357885837555, -0.0027352459728717804, -0.007364380173385143, 0.8324191570281982, -0.02697606384754181, -9.830318450927734) 
(2023-05-26_16-35-25.392, 1685093725.391865, 1369128925.391865, -7.3132195, 112.789849, 27.5, -0.010370389558374882, 0.0008974578231573105, -0.0031292405910789967, 0.8324154615402222, -0.04130690544843674, -9.815958023071289) 
(2023-05-26_16-35-25.484, 1685093725.48466, 1369128925.48466, -7.3132195, 112.789849, 27.5, -0.00845497939735651, 0.011320597492158413, 0.001725912094116211, 0.794385552406311, -0.060398899018764496, -9.825505256652832) 
(2023-05-26_16-35-25.565, 1685093725.564029, 1369128925.564029, -7.3132195, 112.789849, 27.5, -0.010301085188984871, 0.010080263949930668, 0.00294360239058733, 0.8085739612579346, -0.08903209120035172, -9.729743957519531) 
(2023-05-26_16-35-25.663, 1685093725.659175, 1369128925.659175, -7.3132195, 112.789849, 27.5, -0.0047851260751485825, 0.010739675723016262, -0.0025303345173597336, 0.7277829647064209, -0.08900510519742966, -9.801499366760254) 
(2023-05-26_16-35-25.757, 1685093725.753409, 1369128925.753409, -7.3132195, 112.789849, 27.5, -0.006031263619661331, 0.003969242796301842, 0.002368827350437641, 0.7562482357025146, -0.012546293437480927, -9.79190444946289) 
(2023-05-26_16-35-25.847, 1685093725.846974, 1369128925.846974, -7.3132195, 112.789849, 27.5, -0.001683644950389862, 0.008266056887805462, 0.00847319420427084, 0.7278220653533936, -0.08424865454435349, -9.839814186096191) 
(2023-05-26_16-35-25.928, 1685093725.925185, 1369128925.925185, -7.313219, 112.78984866666667, 27.4, 0.0031129252165555954, -0.004543166607618332, -0.006723485887050629, 0.7515454292297363, 0.030426952987909317, -9.873298645019531) 
(2023-05-26_16-35-26.007, 1685093726.005342, 1369128926.005342, -7.313219, 112.78984866666667, 27.4, 0.0007078815251588821, -0.002754492685198784, 0.00546648632735014, 0.7134377956390381, -0.017288625240325928, -9.79185962677002) 
(2023-05-26_16-35-26.100, 1685093726.099909, 1369128926.099909, -7.313219, 112.78984866666667, 27.4, -0.009117165580391884, 0.0033479053527116776, -8.141621947288513e-05, 0.7990528345108032, 0.011309675872325897, -9.801518440246582) 
(2023-05-26_16-35-26.180, 1685093726.179441, 1369128926.179441, -7.313219, 112.78984866666667, 27.4, -0.008507249876856804, 0.0076690660789608955, -0.007415911182761192, 0.8181577920913696, -0.050857074558734894, -9.820735931396484) 
(2023-05-26_16-35-26.259, 1685093726.257484, 1369128926.257484, -7.313219, 112.78984866666667, 27.4, -0.010967141948640347, 0.013203487731516361, -0.015375838615000248, 0.823013186454773, -0.13213372230529785, -9.84473991394043) 
(2023-05-26_16-35-26.353, 1685093726.350972, 1369128926.350972, -7.313219, 112.78984866666667, 27.4, -0.002933735027909279, 0.0064291078597307205, 0.00542339775711298, 0.7800283432006836, 0.006546489894390106, -9.801499366760254) 
(2023-05-26_16-35-26.449, 1685093726.447508, 1369128926.447508, -7.313219, 112.78984866666667, 27.4, -0.002306399866938591, 0.011967445723712444, 0.0011361762881278992, 0.7183520793914795, -0.12248515337705612, -9.849407196044922) 
(2023-05-26_16-35-26.542, 1685093726.541439, 1369128926.541439, -7.313219, 112.78984866666667, 27.4, -0.001766769215464592, 0.00032790564000606537, -0.003095792606472969, 0.7277134656906128, -0.02208101749420166, -9.791878700256348) 
(2023-05-26_16-35-26.620, 1685093726.619635, 1369128926.619635, -7.313219, 112.78984866666667, 27.4, 0.006249293684959412, -0.0015012118965387344, 0.00609301682561636, 0.7943507432937622, -0.026936843991279602, -9.820694923400879) 
(2023-05-26_16-35-26.699, 1685093726.697622, 1369128926.697622, -7.313219, 112.78984866666667, 27.4, -0.0029203444719314575, 0.006417332217097282, 0.009084862656891346, 0.8988586664199829, 0.020828694105148315, -9.72498893737793) 
(2023-05-26_16-35-26.793, 1685093726.792004, 1369128926.792004, -7.313219, 112.78984866666667, 27.4, -0.010946707800030708, 0.005790507420897484, 0.0005141915753483772, 0.794277548789978, -0.01734195649623871, -9.763213157653809) 
(2023-05-26_16-35-26.873, 1685093726.87151, 1369128926.87151, -7.313219, 112.78984866666667, 27.4, -0.006627155467867851, 0.013809513300657272, -0.006208410952240229, 0.8609645366668701, -0.06044556945562363, -9.806422233581543) 
(2023-05-26_16-35-26.968, 1685093726.966868, 1369128926.966868, -7.313219, 112.78984866666667, 27.4, -0.012135173194110394, 0.006364356726408005, 0.010881871916353703, 0.746841549873352, 0.006514191627502441, -9.902047157287598) 
(2023-05-26_16-35-27.047, 1685093727.046942, 1369128927.046942, -7.313219, 112.78984866666667, 27.4, -0.006599515676498413, 0.011320199817419052, 0.004783878102898598, 0.7277874946594238, -0.00778825581073761, -9.86850643157959) 
(2023-05-26_16-35-27.133, 1685093727.126479, 1369128927.126479, -7.3132185, 112.78984866666667, 27.3, 0.001330716535449028, -0.00029344484210014343, 0.004240351729094982, 0.7324178218841553, -0.01727895438671112, -9.748773574829102) 
(2023-05-26_16-35-27.222, 1685093727.221919, 1369128927.221919, -7.3132185, 112.78984866666667, 27.3, 0.001356637105345726, 0.0021487586200237274, 0.007893924601376057, 0.7514898777008057, -0.01731906086206436, -9.78711223602295) 
(2023-05-26_16-35-27.315, 1685093727.314498, 1369128927.314498, -7.3132185, 112.78984866666667, 27.3, 0.0007213130593299866, 0.00031494535505771637, 0.004846375435590744, 0.760873556137085, 0.06396263837814331, -9.734386444091797) 
(2023-05-26_16-35-27.396, 1685093727.394046, 1369128927.394046, -7.3132185, 112.78984866666667, 27.3, -0.010978423058986664, 0.003969650715589523, -0.00558233167976141, 0.8656562566757202, -0.04130389541387558, -9.763307571411133) 
(2023-05-26_16-35-27.474, 1685093727.47324, 1369128927.47324, -7.3132185, 112.78984866666667, 27.3, -0.007896003313362598, 0.011372807435691357, -0.013527944684028625, 0.7420188188552856, -0.017334148287773132, -9.825420379638672) 
(2023-05-26_16-35-27.710, 1685093727.706749, 1369128927.706749, -7.3132185, 112.78984866666667, 27.3, -0.0005247443914413452, -0.000293046236038208, 0.0011823857203125954, 0.6802480220794678, -0.05076248198747635, -9.863688468933105) 
(2023-05-26_16-35-27.835, 1685093727.834432, 1369128927.834432, -7.3132185, 112.78984866666667, 27.3, -0.002962745726108551, 0.006454626098275185, -0.0025097765028476715, 0.7039369344711304, 0.035266097635030746, -9.844503402709961) 
(2023-05-26_16-35-27.929, 1685093727.928939, 1369128927.928939, -7.3132185, 112.78984866666667, 27.3, -0.0029860474169254303, -0.00030363909900188446, 0.0005631502717733383, 0.7371937036514282, -0.007738031446933746, -9.772722244262695) 
(2023-05-26_16-35-28.023, 1685093728.02269, 1369128928.02269, -7.3132185, 112.78984866666667, 27.3, -0.0010840687900781631, 0.0070500560104846954, 0.006038413383066654, 0.7276651859283447, 0.0639420598745346, -9.815775871276855) 
(2023-05-26_16-35-28.102, 1685093728.101749, 1369128928.101749, -7.3132185, 112.78984866666667, 27.3, -0.0035861358046531677, -0.004017196595668793, 0.009726404212415218, 0.8324481248855591, 0.0016738921403884888, -9.87819766998291) 
(2023-05-26_16-35-28.180, 1685093728.179089, 1369128928.179089, -7.3132185, 112.78984866666667, 27.3, -0.0047655124217271805, 0.008873672224581242, 0.005408761091530323, 0.8322666883468628, 0.05432569235563278, -9.758421897888184) 
(2023-05-26_16-35-28.291, 1685093728.29066, 1369128928.29066, -7.3132185, 112.78984866666667, 27.3, 4.535168409347534e-05, -0.0033318698406219482, -0.006738673429936171, 0.7229535579681396, 0.030478328466415405, -9.830159187316895) 
(2023-05-26_16-35-28.404, 1685093728.402176, 1369128928.402176, -7.3132185, 112.78984866666667, 27.3, -0.005455419421195984, -0.002772141247987747, 0.001172293908894062, 0.851402759552002, -0.012635558843612671, -9.801591873168945) 
(2023-05-26_16-35-28.515, 1685093728.513369, 1369128928.513369, -7.3132185, 112.78984866666667, 27.3, 0.0013182684779167175, 0.0034150071442127228, -0.004314906429499388, 0.8513619899749756, -0.0030582472681999207, -9.772848129272461) 
(2023-05-26_16-35-28.593, 1685093728.592949, 1369128928.592949, -7.3132185, 112.78984866666667, 27.3, -0.0030276700854301453, -0.0088945422321558, 0.0012010186910629272, 0.8132911920547485, -0.012572914361953735, -9.75365161895752) 
(2023-05-26_16-35-28.824, 1685093728.82074, 1369128928.82074, -7.313218, 112.7898485, 27.2, -0.007267024368047714, 0.0058171916753053665, -0.001913296990096569, 0.7039445638656616, 0.0018187016248703003, -9.82536506652832) 
(2023-05-26_16-35-28.939, 1685093728.937274, 1369128928.937274, -7.313218, 112.7898485, 27.2, 6.680935621261597e-05, -0.0008857380598783493, -0.004305589944124222, 0.7848818302154541, -0.1033947691321373, -9.8015718460083) 
(2023-05-26_16-35-29.017, 1685093729.015509, 1369128929.015509, -7.313218, 112.7898485, 27.2, 0.004400525242090225, -0.0015067029744386673, 0.004865785129368305, 0.7705601453781128, -0.0030254200100898743, -9.835022926330566) 
(2023-05-26_16-35-29.112, 1685093729.110678, 1369128929.110678, -7.313218, 112.7898485, 27.2, -0.0029150620102882385, 0.000866428017616272, 0.018256284296512604, 0.8608160018920898, 0.07818539440631866, -9.782388687133789) 
(2023-05-26_16-35-29.188, 1685093729.187511, 1369128929.187511, -7.313218, 112.7898485, 27.2, -0.00846171472221613, 0.008245267905294895, 0.004176754504442215, 0.7895394563674927, -0.02690339833498001, -9.77279281616211) 
(2023-05-26_16-35-29.268, 1685093729.266366, 1369128929.266366, -7.313218, 112.7898485, 27.2, -0.009090733714401722, 0.010719666257500648, -0.003156316466629505, 0.9227917194366455, -0.060490988194942474, -9.792121887207031) 
(2023-05-26_16-35-29.376, 1685093729.374417, 1369128929.374417, -7.313218, 112.7898485, 27.2, -0.004754742607474327, 0.013177955523133278, 0.0023437244817614555, 0.780109167098999, -0.0794941708445549, -9.806342124938965) 
(2023-05-26_16-35-29.471, 1685093729.470158, 1369128929.470158, -7.313218, 112.7898485, 27.2, -0.006038431078195572, 0.002126794308423996, 0.002984992228448391, 0.8704632520675659, -0.07955584675073624, -9.777705192565918) 
(2023-05-26_16-35-29.565, 1685093729.564263, 1369128929.564263, -7.313218, 112.7898485, 27.2, -0.012746644206345081, 0.0192995835095644, -0.006248652469366789, 0.7896436452865601, -0.022182084619998932, -9.868584632873535) 
(2023-05-26_16-35-29.658, 1685093729.657528, 1369128929.657528, -7.313218, 112.7898485, 27.2, -0.004760188981890678, 0.006403988227248192, 0.01029860507696867, 0.7706434726715088, -0.07951217144727707, -9.84943962097168) 
(2023-05-26_16-35-29.749, 1685093729.749967, 1369128929.749967, -7.313218, 112.7898485, 27.2, -0.004162801429629326, 0.008271166123449802, 0.0029720040038228035, 0.7468905448913574, -0.09861960262060165, -9.863792419433594) 
(2023-05-26_16-35-29.828, 1685093729.827724, 1369128929.827724, -7.313218, 112.7898485, 27.2, 0.0019088387489318848, -0.003955576568841934, -0.0006275130435824394, 0.7800997495651245, -0.03171299397945404, -9.835051536560059) 
(2023-05-26_16-35-29.908, 1685093729.906278, 1369128929.906278, -7.313218, 112.7898485, 27.2, 0.002552660182118416, -0.0008967351168394089, 0.003026333637535572, 0.8323767185211182, 0.03993336856365204, -9.844645500183105) 
(2023-05-26_16-35-30.001, 1685093729.999694, 1369128929.999694, -7.313218, 112.7898485, 27.2, -0.001069817692041397, 0.0045725200325250626, 0.013369233347475529, 0.8133325576782227, -0.041260942816734314, -9.768037796020508) 
(2023-05-26_16-35-30.080, 1685093730.079018, 1369128930.079018, -7.313218, 112.7898485, 27.2, -0.011535515077412128, 0.011310791596770287, -0.00011606141924858093, 0.7609965801239014, 0.01611998677253723, -9.806262969970703) 
(2023-05-26_16-35-30.178, 1685093730.172537, 1369128930.172537, -7.3132175, 112.78984833333334, 27.2, -0.013346814550459385, 0.009423593059182167, 0.011477756313979626, 0.7657756805419922, -0.046004973351955414, -9.777565956115723) 
(2023-05-26_16-35-30.267, 1685093730.266782, 1369128930.266782, -7.3132175, 112.78984833333334, 27.2, -0.008400006219744682, 0.01681850291788578, 0.00903108436614275, 0.8228936195373535, 0.03514719381928444, -9.868587493896484) 
(2023-05-26_16-35-30.362, 1685093730.360644, 1369128930.360644, -7.3132175, 112.78984833333334, 27.2, -0.01893242821097374, 0.0069766901433467865, 0.0004810178652405739, 0.7278826236724854, -0.12250227481126785, -9.863785743713379) 
(2023-05-26_16-35-30.453, 1685093730.452735, 1369128930.452735, -7.3132175, 112.78984833333334, 27.2, -0.0035484228283166885, 0.012588403187692165, -0.0031420025043189526, 0.7467314004898071, -0.02209184318780899, -9.782320976257324) 
(2023-05-26_16-35-30.534, 1685093730.532158, 1369128930.532158, -7.3132175, 112.78984833333334, 27.2, -0.0018632449209690094, -0.004517244175076485, -0.022607820108532906, 0.685029149055481, -0.08422283083200455, -9.858924865722656) 
(2023-05-26_16-35-30.630, 1685093730.627039, 1369128930.627039, -7.3132175, 112.78984833333334, 27.2, -0.005987491458654404, 0.006395746022462845, 0.01090435404330492, 0.846648097038269, -0.0030775070190429688, -9.811159133911133) 
(2023-05-26_16-35-30.708, 1685093730.706567, 1369128930.706567, -7.3132175, 112.78984833333334, 27.2, -0.0030084438621997833, -0.0064464472234249115, 0.0030238591134548187, 0.7466422319412231, 0.07350854575634003, -9.777471542358398) 
(2023-05-26_16-35-30.786, 1685093730.785778, 1369128930.785778, -7.3132175, 112.78984833333334, 27.2, -0.0071807680651545525, 0.014368835836648941, 0.00965371634811163, 0.8037750720977783, 0.0017691850662231445, -9.763212203979492) 
(2023-05-26_16-35-30.866, 1685093730.864844, 1369128930.864844, -7.3132175, 112.78984833333334, 27.2, -0.012192376889288425, 0.0008684135973453522, 0.0029664570465683937, 0.7373557090759277, -0.09382259100675583, -9.849411010742188) 
(2023-05-26_16-35-30.944, 1685093730.943496, 1369128930.943496, -7.3132175, 112.78984833333334, 27.2, -0.0016670823097229004, 0.011948992498219013, 0.007851111702620983, 0.6802384853363037, -0.04597967118024826, -9.858896255493164) 
(2023-05-26_16-35-31.022, 1685093731.022857, 1369128931.022857, -7.3132175, 112.78984833333334, 27.2, 0.0006917901337146759, -0.004589090123772621, 0.0036416733637452126, 0.713443398475647, 0.02570679783821106, -9.830151557922363) 
(2023-05-26_16-35-31.117, 1685093731.117958, 1369128931.117958, -7.3132175, 112.78984833333334, 27.2, 0.001370927318930626, 0.0027524400502443314, 0.010943173430860043, 0.8608312606811523, 0.011290602385997772, -9.744110107421875) 
(2023-05-26_16-35-31.200, 1685093731.197398, 1369128931.197398, -7.3132175, 112.78984833333334, 27.2, -0.0023450125008821487, -0.005253612995147705, 0.014616801403462887, 0.8324476480484009, 0.020784594118595123, -9.89255428314209) 
(2023-05-26_16-35-31.295, 1685093731.292701, 1369128931.292701, -7.3132175, 112.78984833333334, 27.2, -0.004783837124705315, 0.007041037082672119, 0.002973702736198902, 0.8513590097427368, 0.006498575210571289, -9.777630805969238) 
(2023-05-26_16-35-31.374, 1685093731.372688, 1369128931.372688, -7.3132175, 112.78984833333334, 27.2, -0.012759337201714516, 0.004520731046795845, 0.010885545052587986, 0.7229083776473999, 0.0018371567130088806, -9.76791000366211) 
(2023-05-26_16-35-31.454, 1685093731.452221, 1369128931.452221, -7.313217166666667, 112.78984833333334, 27.1, -0.00901657622307539, 0.015584446489810944, 0.010253270156681538, 0.7469463348388672, -0.11298263818025589, -9.902119636535645) 
(2023-05-26_16-35-31.548, 1685093731.546664, 1369128931.546664, -7.313217166666667, 112.78984833333334, 27.1, -0.0017520077526569366, 0.002779928967356682, -0.002493441104888916, 0.6802768707275391, -0.06511088460683823, -9.878067016601562) 
(2023-05-26_16-35-31.626, 1685093731.625578, 1369128931.625578, -7.313217166666667, 112.78984833333334, 27.1, -0.0011376291513442993, 0.007097164168953896, -0.00860744807869196, 0.7278032302856445, 0.011313676834106445, -9.897232055664062) 
(2023-05-26_16-35-31.721, 1685093731.720362, 1369128931.720362, -7.313217166666667, 112.78984833333334, 27.1, -0.003041531890630722, -0.010731102898716927, -1.3548880815505981e-05, 0.8180686235427856, 0.04474332183599472, -9.815889358520508) 
(2023-05-26_16-35-31.799, 1685093731.797698, 1369128931.797698, -7.313217166666667, 112.78984833333334, 27.1, -0.014653639867901802, 0.0039390381425619125, -0.0019343560561537743, 0.7372541427612305, 0.05911577492952347, -9.878055572509766) 
(2023-05-26_16-35-31.897, 1685093731.892216, 1369128931.892216, -7.313217166666667, 112.78984833333334, 27.1, -0.004138847813010216, -0.0028424151241779327, 0.02497631311416626, 0.8656187057495117, 0.044713329523801804, -9.796783447265625) 
(2023-05-26_16-35-31.988, 1685093731.987121, 1369128931.987121, -7.313217166666667, 112.78984833333334, 27.1, -0.013340509496629238, 0.013731801882386208, 0.00719223078340292, 0.7658249139785767, -0.06514202803373337, -9.806317329406738) 
(2023-05-26_16-35-32.065, 1685093732.064726, 1369128932.064726, -7.313217166666667, 112.78984833333334, 27.1, -0.004843233153223991, 0.004628274589776993, -0.009833532385528088, 0.7706751823425293, -0.10341738909482956, -9.859033584594727) 
(2023-05-26_16-35-32.159, 1685093732.158229, 1369128932.158229, -7.313217166666667, 112.78984833333334, 27.1, -0.013963732868432999, 0.015584851615130901, 0.002302108332514763, 0.7657798528671265, -0.050784848630428314, -9.777568817138672) 
(2023-05-26_16-35-32.251, 1685093732.250881, 1369128932.250881, -7.313217166666667, 112.78984833333334, 27.1, -0.0005413051694631577, -0.003975983709096909, 0.0018044700846076012, 0.7753809690475464, -0.05084002763032913, -9.854216575622559) 
(2023-05-26_16-35-32.329, 1685093732.328428, 1369128932.328428, -7.313217166666667, 112.78984833333334, 27.1, -0.0029305629432201385, 0.010123820044100285, 0.0011398475617170334, 0.7087637186050415, 0.01133621484041214, -9.887632369995117) 
(2023-05-26_16-35-32.423, 1685093732.422545, 1369128932.422545, -7.313217166666667, 112.78984833333334, 27.1, 0.0031200088560581207, -0.00886315293610096, 0.001223500818014145, 0.7087211608886719, 0.03524728864431381, -9.868457794189453) 
(2023-05-26_16-35-32.503, 1685093732.501519, 1369128932.501519, -7.313217166666667, 112.78984833333334, 27.1, -0.0005047004669904709, -0.0033919308334589005, 0.01095616165548563, 0.7040252685546875, 0.020885486155748367, -9.911569595336914) 
(2023-05-26_16-35-32.599, 1685093732.595034, 1369128932.595034, -7.313217166666667, 112.78984833333334, 27.1, -0.008499182760715485, 0.010126974433660507, -0.008644293062388897, 0.8562979698181152, -0.10826646536588669, -9.849554061889648) 
(2023-05-26_16-35-32.676, 1685093732.674838, 1369128932.674838, -7.313217166666667, 112.78984833333334, 27.1, -0.004165934398770332, 0.0076576704159379005, 0.0029739774763584137, 0.8275580406188965, 0.011305153369903564, -9.768022537231445) 
(2023-05-26_16-35-32.755, 1685093732.753226, 1369128932.753226, -7.313216833333334, 112.78984816666667, 27.1, -0.012802128680050373, 0.008872121572494507, -0.006825351156294346, 0.589990496635437, -0.11763951927423477, -9.92589282989502) 
(2023-05-26_16-35-32.847, 1685093732.846706, 1369128932.846706, -7.313216833333334, 112.78984816666667, 27.1, -0.0029605552554130554, 0.003371443599462509, 0.00238204188644886, 0.9561182260513306, 0.020684946328401566, -9.878326416015625) 
(2023-05-26_16-35-32.926, 1685093732.925703, 1369128932.925703, -7.313216833333334, 112.78984816666667, 27.1, -0.0029977168887853622, -0.005223382264375687, 0.004240401089191437, 0.5469129085540771, -0.0027971938252449036, -9.782083511352539) 
(2023-05-26_16-35-33.023, 1685093733.021225, 1369128933.021225, -7.313216833333334, 112.78984816666667, 27.1, -0.0010693054646253586, 0.009502076543867588, 0.006640763022005558, 0.8656901121139526, 0.006453849375247955, -9.83033561706543) 
(2023-05-26_16-35-33.100, 1685093733.099925, 1369128933.099925, -7.313216833333334, 112.78984816666667, 27.1, -0.002391017973423004, -0.007678152993321419, 0.005471031181514263, 0.6944925785064697, -0.05076035112142563, -9.83975601196289) 
(2023-05-26_16-35-33.181, 1685093733.179937, 1369128933.179937, -7.313216833333334, 112.78984816666667, 27.1, -0.006639257073402405, 0.010122651234269142, -0.004365839064121246, 0.889447808265686, 0.0016706883907318115, -9.801626205444336) 
(2023-05-26_16-35-33.277, 1685093733.275331, 1369128933.275331, -7.313216833333334, 112.78984816666667, 27.1, -0.014067023992538452, 0.0015019327402114868, -0.006195923779159784, 0.7373031377792358, -0.0030196458101272583, -9.873303413391113) 
(2023-05-26_16-35-33.356, 1685093733.354839, 1369128933.354839, -7.313216833333334, 112.78984816666667, 27.1, -0.00474538654088974, 0.011937224306166172, 0.006619381718337536, 0.8229695558547974, -0.07000123709440231, -9.85428237915039) 
(2023-05-26_16-35-33.437, 1685093733.43442, 1369128933.43442, -7.313216833333334, 112.78984816666667, 27.1, -0.00299900583922863, -0.0015247426927089691, -0.001263636164367199, 0.6849002838134766, 0.025731820613145828, -9.830119132995605) 
(2023-05-26_16-35-33.528, 1685093733.52721, 1369128933.52721, -7.313216833333334, 112.78984816666667, 27.1, -0.00046706758439540863, 0.007051233202219009, 0.006650905124843121, 0.7372324466705322, -0.08897831290960312, -9.74403190612793) 
(2023-05-26_16-35-33.605, 1685093733.605728, 1369128933.605728, -7.313216833333334, 112.78984816666667, 27.1, -0.006086748093366623, -0.006458219140768051, 0.0017921291291713715, 0.7278150320053101, -0.0269135981798172, -9.878097534179688) 
(2023-05-26_16-35-33.700, 1685093733.700261, 1369128933.700261, -7.313216833333334, 112.78984816666667, 27.1, -0.0041413456201553345, 0.010717297904193401, 0.005405089817941189, 0.8990174531936646, 0.0064100176095962524, -9.854321479797363) 
(2023-05-26_16-35-33.780, 1685093733.77902, 1369128933.77902, -7.313216833333334, 112.78984816666667, 27.1, -0.0134509252384305, 0.0008876528590917587, -0.004971213638782501, 0.7657973766326904, -0.04601668566465378, -9.79672622680664) 
(2023-05-26_16-35-33.861, 1685093733.859049, 1369128933.859049, -7.313216833333334, 112.78984816666667, 27.1, -0.0065726544708013535, 0.0174590814858675, 0.003543657250702381, 0.7897038459777832, -0.14643245935440063, -9.825552940368652) 
(2023-05-26_16-35-33.952, 1685093733.951754, 1369128933.951754, -7.313216833333334, 112.78984816666667, 27.1, -0.002386903390288353, -0.00028676167130470276, -0.0037063113413751125, 0.7373906373977661, -0.08428627997636795, -9.887722969055176) 
(2023-05-26_16-35-34.034, 1685093734.030443, 1369128934.030443, -7.313216333333333, 112.78984816666667, 27.0, -0.006616508588194847, 0.008870143443346024, 0.0035712830722332, 0.7182565927505493, 0.05433794483542442, -9.901985168457031) 
(2023-05-26_16-35-34.127, 1685093734.125333, 1369128934.125333, -7.313216333333333, 112.78984816666667, 27.0, 0.0013043265789747238, -0.0045839883387088776, 0.003033677116036415, 0.6612080335617065, 0.01136913150548935, -9.901947021484375) 
(2023-05-26_16-35-34.206, 1685093734.204103, 1369128934.204103, -7.313216333333333, 112.78984816666667, 27.0, -0.0029805991798639297, 0.006470328196883202, -0.007391731254756451, 0.7847994565963745, 0.03997800499200821, -9.839802742004395) 
(2023-05-26_16-35-34.285, 1685093734.283689, 1369128934.283689, -7.313216333333333, 112.78984816666667, 27.0, -0.011648162268102169, -0.001531396061182022, -0.012889751233160496, 0.8466980457305908, 0.001673087477684021, -9.859054565429688) 
(2023-05-26_16-35-34.379, 1685093734.378762, 1369128934.378762, -7.313216333333333, 112.78984816666667, 27.0, -0.01525129284709692, 0.015629608184099197, -0.013568735681474209, 0.8181537389755249, -0.003078833222389221, -9.854236602783203) 
(2023-05-26_16-35-34.460, 1685093734.458006, 1369128934.458006, -7.313216333333333, 112.78984816666667, 27.0, -0.00853140838444233, 0.003376562148332596, -0.008012342266738415, 0.8086822032928467, -0.08909065276384354, -9.825538635253906) 
(2023-05-26_16-35-34.554, 1685093734.553081, 1369128934.553081, -7.313216333333333, 112.78984816666667, 27.0, -0.005956985056400299, 0.018077678978443146, 0.0029336875304579735, 0.6993410587310791, -0.0747019574046135, -9.902043342590332) 
(2023-05-26_16-35-34.631, 1685093734.630721, 1369128934.630721, -7.313216333333333, 112.78984816666667, 27.0, -0.002362394705414772, -0.003389570862054825, 0.007287950254976749, 0.7752388715744019, 0.049566589295864105, -9.806258201599121) 
(2023-05-26_16-35-34.711, 1685093734.710261, 1369128934.710261, -7.313216333333333, 112.78984816666667, 27.0, 0.00135800801217556, 0.004612555727362633, 0.004834811203181744, 0.7895517349243164, 0.02086605131626129, -9.820659637451172) 
(2023-05-26_16-35-34.806, 1685093734.80514, 1369128934.80514, -7.313216333333333, 112.78984816666667, 27.0, 7.041357457637787e-05, 0.0015760939568281174, -0.00675445981323719, 0.8990111351013184, -0.06047307699918747, -9.79688549041748) 
(2023-05-26_16-35-34.882, 1685093734.882342, 1369128934.882342, -7.313216333333333, 112.78984816666667, 27.0, -0.0066625140607357025, 0.006445605307817459, -0.005574487149715424, 0.7991368770599365, -0.041289426386356354, -9.835079193115234) 
(2023-05-26_16-35-34.964, 1685093734.961372, 1369128934.961372, -7.313216333333333, 112.78984816666667, 27.0, -0.005377147346735001, 0.009484028443694115, 0.0054045384749770164, 0.7611099481582642, -0.06993823498487473, -9.839842796325684) 
(2023-05-26_16-35-35.057, 1685093735.056058, 1369128935.056058, -7.313216333333333, 112.78984816666667, 27.0, -0.008484932594001293, 0.0076494375243783, -0.001313469372689724, 0.742019534111023, 0.0065535008907318115, -9.844563484191895) 
(2023-05-26_16-35-35.136, 1685093735.13473, 1369128935.13473, -7.313216333333333, 112.78984816666667, 27.0, -0.0005313977599143982, 0.002794058993458748, -0.0049299211241304874, 0.7277904748916626, -0.017345063388347626, -9.86372184753418) 
(2023-05-26_16-35-35.230, 1685093735.22832, 1369128935.22832, -7.313216333333333, 112.78984816666667, 27.0, 0.004403227940201759, 0.0003396701067686081, 0.003029131330549717, 0.7895654439926147, -0.031694985926151276, -9.791954040527344) 
(2023-05-26_16-35-35.326, 1685093735.323201, 1369128935.323201, -7.313216, 112.789848, 27.0, -0.0011444035917520523, 0.000940617173910141, -0.001875028945505619, 0.7134793996810913, -0.002978295087814331, -9.83974838256836) 
(2023-05-26_16-35-35.420, 1685093735.418744, 1369128935.418744, -7.313216, 112.789848, 27.0, -0.004185240715742111, -0.0009528566151857376, 0.00971428956836462, 0.7514774799346924, 0.04001890867948532, -9.820605278015137) 
(2023-05-26_16-35-35.498, 1685093735.497536, 1369128935.497536, -7.313216, 112.789848, 27.0, -0.0041271355003118515, 0.005158543586730957, 0.017017487436532974, 0.808538556098938, 0.06864809989929199, -9.82065200805664) 
(2023-05-26_16-35-35.576, 1685093735.575884, 1369128935.575884, -7.313216, 112.789848, 27.0, -0.010952932760119438, 0.007644733414053917, -0.003763438668102026, 0.8514566421508789, -0.09866156429052353, -9.782485961914062) 
(2023-05-26_16-35-35.671, 1685093735.670693, 1369128935.670693, -7.313216, 112.789848, 27.0, -0.007864800281822681, 0.008264109492301941, -0.0007029501721262932, 0.813407301902771, -0.003080517053604126, -9.863809585571289) 
(2023-05-26_16-35-35.767, 1685093735.764127, 1369128935.764127, -7.313216, 112.789848, 27.0, -0.009138581342995167, 0.003982990980148315, -0.006796075962483883, 0.8134443759918213, -0.06998703628778458, -9.844691276550293) 
(2023-05-26_16-35-35.878, 1685093735.876264, 1369128935.876264, -7.313216, 112.789848, 27.0, -0.009112661704421043, 0.0064251963049173355, -0.0031425035558640957, 0.7942138910293579, 0.030468478798866272, -9.744023323059082) 
(2023-05-26_16-35-35.973, 1685093735.971781, 1369128935.971781, -7.313216, 112.789848, 27.0, -0.002323472872376442, 0.0033549536019563675, 0.00848673190921545, 0.8229011297225952, -0.04129856824874878, -9.815947532653809) 
(2023-05-26_16-35-36.096, 1685093736.095097, 1369128936.095097, -7.313216, 112.789848, 27.0, 0.0032000821083784103, 0.004623936489224434, 0.004231310449540615, 0.7944180965423584, -0.06041646748781204, -9.854244232177734) 
(2023-05-26_16-35-36.191, 1685093736.19072, 1369128936.19072, -7.313216, 112.789848, 27.0, -0.011621772311627865, 0.002759147435426712, -0.011683075688779354, 0.7896087169647217, -0.031718410551548004, -9.830272674560547) 
(2023-05-26_16-35-36.287, 1685093736.286285, 1369128936.286285, -7.313216, 112.789848, 27.0, -0.0017677098512649536, -0.0033687669783830643, 0.0017980001866817474, 0.7419829368591309, 0.011350944638252258, -9.815823554992676) 
(2023-05-26_16-35-36.399, 1685093736.397831, 1369128936.397831, -7.313216, 112.789848, 27.0, 0.00012307241559028625, 0.000913526862859726, 0.008503618650138378, 0.7324049472808838, 0.05916972458362579, -9.796624183654785) 
(2023-05-26_16-35-36.511, 1685093736.509362, 1369128936.509362, -7.313216, 112.789848, 27.0, -0.0017636790871620178, -0.002139812335371971, 0.0011838097125291824, 0.761019229888916, -0.022113136947155, -9.796706199645996) 
(2023-05-26_16-35-36.605, 1685093736.60357, 1369128936.60357, -7.313216, 112.789848, 27.0, -0.003585582599043846, 0.003993576392531395, -0.0012836437672376633, 0.8370648622512817, 0.044744208455085754, -9.78717041015625) 
(2023-05-26_16-35-36.698, 1685093736.696894, 1369128936.696894, -7.313216, 112.789848, 27.0, 0.006847068667411804, -0.003948131576180458, 0.0048826709389686584, 0.7515326738357544, 0.0017682164907455444, -9.839788436889648) 
(2023-05-26_16-35-36.808, 1685093736.805732, 1369128936.805732, -7.3132158333333335, 112.78984816666667, 27.0, -0.0017207227647304535, 0.005833664909005165, 0.0017684008926153183, 0.8800336122512817, -0.05092885345220566, -9.8495454788208) 
(2023-05-26_16-35-36.902, 1685093736.900816, 1369128936.900816, -7.3132158333333335, 112.78984816666667, 27.0, 0.001923559233546257, -0.004584774374961853, 0.004256413318216801, 0.7229207754135132, 0.09260497242212296, -9.849281311035156) 
(2023-05-26_16-35-36.997, 1685093736.995658, 1369128936.995658, -7.3132158333333335, 112.78984816666667, 27.0, -0.006007064133882523, 0.011342967860400677, -0.0013163164258003235, 0.8419623374938965, -0.04133281856775284, -9.844705581665039) 
(2023-05-26_16-35-37.076, 1685093737.07533, 1369128937.07533, -7.3132158333333335, 112.78984816666667, 27.0, -0.007863981649279594, 0.0027171336114406586, 0.007247983478009701, 0.8609838485717773, -0.02701280266046524, -9.849510192871094) 
(2023-05-26_16-35-37.171, 1685093737.170158, 1369128937.170158, -7.3132158333333335, 112.78984816666667, 27.0, -0.007848236709833145, 0.011947045102715492, -0.0013250336050987244, 0.8515006303787231, -0.07479733973741531, -9.839947700500488) 
(2023-05-26_16-35-37.267, 1685093737.264262, 1369128937.264262, -7.3132158333333335, 112.78984816666667, 27.0, -0.009145746938884258, 0.0021405406296253204, -0.00617991155013442, 0.8467699289321899, -0.05569709092378616, -9.878249168395996) 
(2023-05-26_16-35-37.378, 1685093737.37518, 1369128937.37518, -7.3132158333333335, 112.78984816666667, 27.0, -0.004806583747267723, 0.008293544873595238, -0.004963418003171682, 0.9132815599441528, -0.06526253372430801, -9.7921142578125) 
(2023-05-26_16-35-37.471, 1685093737.470122, 1369128937.470122, -7.3132158333333335, 112.78984816666667, 27.0, -0.012214182876050472, 0.00581759586930275, -0.009864456951618195, 0.7753568887710571, -0.060382209718227386, -9.825484275817871) 
(2023-05-26_16-35-37.549, 1685093737.548635, 1369128937.548635, -7.3132158333333335, 112.78984816666667, 27.0, -0.006587928161025047, 0.010077506303787231, 0.009669777937233448, 0.8276740312576294, -0.022200807929039, -9.844677925109863) 
(2023-05-26_16-35-37.644, 1685093737.643256, 1369128937.643256, -7.3132158333333335, 112.78984816666667, 27.0, 0.0013914834707975388, 0.004583112895488739, 0.01398847158998251, 0.7277897596359253, -0.04123272746801376, -9.844576835632324) 
(2023-05-26_16-35-37.721, 1685093737.72182, 1369128937.72182, -7.3132158333333335, 112.78984816666667, 27.0, 0.0025709830224514008, 0.0009358972311019897, 0.005461391992866993, 0.7467508316040039, 0.011340916156768799, -9.825407981872559) 
(2023-05-26_16-35-37.832, 1685093737.831334, 1369128937.831334, -7.3132158333333335, 112.78984816666667, 27.0, -0.002356868237257004, 0.00954683218151331, -0.009230081923305988, 0.7706001996994019, -0.07948874682188034, -9.81112003326416) 
(2023-05-26_16-35-37.929, 1685093737.92737, 1369128937.92737, -7.3132158333333335, 112.78984816666667, 27.0, -0.00543125718832016, 0.0015203636139631271, 0.0017687249928712845, 0.7657949924468994, -0.012572206556797028, -9.820653915405273) 
(2023-05-26_16-35-38.027, 1685093738.023445, 1369128938.023445, -7.3132158333333335, 112.78984816666667, 27.0, -0.0010523516684770584, 0.008870914578437805, 0.012134936638176441, 0.7324703931808472, 0.04002387821674347, -9.839743614196777) 
(2023-05-26_16-35-38.116, 1685093738.115689, 1369128938.115689, -7.3132158333333335, 112.78984816666667, 27.0, 0.002538798376917839, -0.002733297646045685, 0.0018117642030119896, 0.8133398294448853, -0.012599267065525055, -9.796759605407715) 
(2023-05-26_16-35-38.198, 1685093738.195154, 1369128938.195154, -7.313215666666666, 112.78984816666667, 27.1, -0.007922475226223469, 0.0009198281913995743, -0.006171468645334244, 0.794370174407959, 0.006495915353298187, -9.863781929016113) 
(2023-05-26_16-35-38.292, 1685093738.290699, 1369128938.290699, -7.313215666666666, 112.78984816666667, 27.1, -0.0017587840557098389, -0.0033766180276870728, 0.00423897709697485, 0.8276146650314331, 0.020829759538173676, -9.825493812561035) 
(2023-05-26_16-35-38.403, 1685093738.402243, 1369128938.402243, -7.313215666666666, 112.78984816666667, 27.1, 0.0019370317459106445, 0.0015658829361200333, -0.000645272433757782, 0.7943527698516846, 0.0017277523875236511, -9.844625473022461) 
(2023-05-26_16-35-38.497, 1685093738.494673, 1369128938.494673, -7.313215666666666, 112.78984816666667, 27.1, -0.0036057494580745697, -0.0021511930972337723, 0.0017873095348477364, 0.8228497505187988, 0.0542813315987587, -9.844625473022461) 
(2023-05-26_16-35-38.590, 1685093738.589922, 1369128938.589922, -7.313215666666666, 112.78984816666667, 27.1, 0.0038036108016967773, -0.0015255454927682877, 0.009745488874614239, 0.7562812566757202, -0.031674571335315704, -9.806286811828613) 
(2023-05-26_16-35-38.704, 1685093738.700453, 1369128938.700453, -7.313215666666666, 112.78984816666667, 27.1, 0.00068693608045578, -0.0002710670232772827, -0.003695070743560791, 0.7657020092010498, 0.025698989629745483, -9.767943382263184) 
(2023-05-26_16-35-38.803, 1685093738.795345, 1369128938.795345, -7.313215666666666, 112.78984816666667, 27.1, 0.0019173752516508102, 0.00035066716372966766, -0.00430279178544879, 0.761040449142456, -0.0030141472816467285, -9.830223083496094) 
(2023-05-26_16-35-38.907, 1685093738.905885, 1369128938.905885, -7.313215666666666, 112.78984816666667, 27.1, 0.0013172850012779236, -0.003362886607646942, 0.004860463552176952, 0.8228603601455688, 0.01127711683511734, -9.820703506469727) 
(2023-05-26_16-35-39.001, 1685093739.000459, 1369128939.000459, -7.313215666666666, 112.78984816666667, 27.1, -0.002367716282606125, -0.0009198859333992004, 0.002398102544248104, 0.7515356540679932, -0.007788605988025665, -9.835004806518555) 
(2023-05-26_16-35-39.093, 1685093739.093994, 1369128939.093994, -7.313215666666666, 112.78984816666667, 27.1, -0.004173612222075462, 0.0008856654167175293, 0.010318613611161709, 0.8704038858413696, -0.036525264382362366, -9.758520126342773) 
(2023-05-26_16-35-39.190, 1685093739.189262, 1369128939.189262, -7.313215666666666, 112.78984816666667, 27.1, -0.0016877185553312302, 0.0039558857679367065, 0.013368959538638592, 0.8514485359191895, -0.0031050965189933777, -9.84948444366455) 
(2023-05-26_16-35-39.299, 1685093739.298822, 1369128939.298822, -7.313215666666666, 112.78984816666667, 27.1, -0.002365957945585251, -0.002770187333226204, 0.005455245263874531, 0.7134069204330444, 0.07350260019302368, -9.834912300109863) 
(2023-05-26_16-35-39.411, 1685093739.40965, 1369128939.40965, -7.313215666666666, 112.78984816666667, 27.1, -0.0011207573115825653, 0.0003035645931959152, 0.005449875257909298, 0.8229023218154907, -0.03652162104845047, -9.820733070373535) 
(2023-05-26_16-35-39.491, 1685093739.489219, 1369128939.489219, -7.313215666666666, 112.78984816666667, 27.1, -0.000511782243847847, 0.0009280554950237274, 0.0030091730877757072, 0.7895877361297607, -0.007819049060344696, -9.8302583694458) 
(2023-05-26_16-35-39.601, 1685093739.599805, 1369128939.599805, -7.313215666666666, 112.78984816666667, 27.1, -0.0011287815868854523, 0.0009268764406442642, 0.0023966794833540916, 0.8609058856964111, 0.006472662091255188, -9.806381225585938) 
(2023-05-26_16-35-39.697, 1685093739.694688, 1369128939.694688, -7.313215333333333, 112.78984816666667, 27.0, -0.004216013476252556, 0.0009229592978954315, -0.0012760255485773087, 0.7706214189529419, -0.0173913836479187, -9.87813949584961) 
(2023-05-26_16-35-39.791, 1685093739.790184, 1369128939.790184, -7.313215333333333, 112.78984816666667, 27.0, -0.0023645441979169846, 0.0027748271822929382, -0.0018854457885026932, 0.8705650568008423, -0.04139005392789841, -9.897425651550293) 
(2023-05-26_16-35-39.871, 1685093739.869658, 1369128939.869658, -7.313215333333333, 112.78984816666667, 27.0, -0.007866131141781807, 0.008881530724465847, -0.0019254116341471672, 0.7706242799758911, -0.06994656473398209, -9.839853286743164) 
(2023-05-26_16-35-39.966, 1685093739.963497, 1369128939.963497, -7.313215333333333, 112.78984816666667, 27.0, -0.014043806120753288, 0.0020977631211280823, -0.0007056985050439835, 0.7943966388702393, -0.017406374216079712, -9.868587493896484) 
(2023-05-26_16-35-40.077, 1685093740.075027, 1369128940.075027, -7.313215333333333, 112.78984816666667, 27.0, -0.009100602008402348, 0.00703083910048008, -0.0007034996524453163, 0.8990088701248169, -0.02702859789133072, -9.820813179016113) 
(2023-05-26_16-35-40.173, 1685093740.170906, 1369128940.170906, -7.313215333333333, 112.78984816666667, 27.0, -0.009751588106155396, 0.002129551023244858, -0.00374118285253644, 0.8276735544204712, -0.003090105950832367, -9.859036445617676) 
(2023-05-26_16-35-40.281, 1685093740.279364, 1369128940.279364, -7.313215333333333, 112.78984816666667, 27.0, -0.010343998670578003, 0.005188003182411194, -0.0019225655123591423, 0.8419274091720581, -0.05086914449930191, -9.806394577026367) 
(2023-05-26_16-35-40.373, 1685093740.372896, 1369128940.372896, -7.313215333333333, 112.78984816666667, 27.0, -0.009115834720432758, 0.002730483189225197, 0.001141045242547989, 0.7990880012512207, 0.06384436041116714, -9.873332023620605) 
(2023-05-26_16-35-40.484, 1685093740.483944, 1369128940.483944, -7.313215333333333, 112.78984816666667, 27.0, 0.0007486045360565186, 0.005220949649810791, 0.005440833978354931, 0.8657300472259521, -0.0700094923377037, -9.80643367767334) 
(2023-05-26_16-35-40.596, 1685093740.595522, 1369128940.595522, -7.313215333333333, 112.78984816666667, 27.0, 0.002571454271674156, 0.002784237265586853, 0.0030144937336444855, 0.680112361907959, 0.011419795453548431, -9.791804313659668) 
(2023-05-26_16-35-40.708, 1685093740.707062, 1369128940.707062, -7.313215333333333, 112.78984816666667, 27.0, 0.001313723623752594, -0.002743501216173172, 0.0030277566984295845, 0.8514688014984131, -0.050892122089862823, -9.830354690551758) 
(2023-05-26_16-35-40.803, 1685093740.802587, 1369128940.802587, -7.313215333333333, 112.78984816666667, 27.0, 0.0038023609668016434, 0.005254311487078667, -4.012417048215866e-05, 0.7324618101119995, 0.006585270166397095, -9.806236267089844) 
(2023-05-26_16-35-40.900, 1685093740.898124, 1369128940.898124, -7.313215333333333, 112.78984816666667, 27.0, 6.496533751487732e-05, -0.005197873339056969, 0.0012004207819700241, 0.818166971206665, 0.006469205021858215, -9.873388290405273) 
(2023-05-26_16-35-40.996, 1685093740.993665, 1369128940.993665, -7.313215333333333, 112.78984816666667, 27.0, -0.010960999876260757, 0.005186827853322029, -0.0025350572541356087, 0.7752097845077515, 0.02091662585735321, -9.758377075195312) 
(2023-05-26_16-35-41.090, 1685093741.089239, 1369128941.089239, -7.313215333333333, 112.78984816666667, 27.0, -0.0024267248809337616, -0.007646746933460236, -0.004292876459658146, 0.837122917175293, -0.003063306212425232, -9.801569938659668) 
(2023-05-26_16-35-41.203, 1685093741.200774, 1369128941.200774, -7.313215166666667, 112.789848, 27.0, 0.0019835494458675385, 0.008919977582991123, 0.0017720237374305725, 0.841806173324585, 0.025638118386268616, -9.75844955444336) 
(2023-05-26_16-35-41.313, 1685093741.311635, 1369128941.311635, -7.313215166666667, 112.789848, 27.0, -0.004197731614112854, -0.0003256220370531082, 0.005440608598291874, 0.6610651016235352, 0.04488973319530487, -9.801342010498047) 
(2023-05-26_16-35-41.406, 1685093741.40562, 1369128941.40562, -7.313215166666667, 112.789848, 27.0, 0.00010972283780574799, 0.004006523638963699, 0.000560578890144825, 0.8323707580566406, 0.05904700607061386, -9.854214668273926) 
(2023-05-26_16-35-41.504, 1685093741.499541, 1369128941.499541, -7.313215166666667, 112.789848, 27.0, -0.00785007979720831, 0.0076349107548594475, 0.004180976189672947, 0.7230370044708252, -0.0030100643634796143, -9.878077507019043) 
(2023-05-26_16-35-41.611, 1685093741.60933, 1369128941.60933, -7.313215166666667, 112.789848, 27.0, 0.004351777955889702, -0.008858839049935341, 0.0018382417038083076, 0.8133039474487305, 0.01608581840991974, -9.787161827087402) 
(2023-05-26_16-35-41.706, 1685093741.704276, 1369128941.704276, -7.313215166666667, 112.789848, 27.0, 0.0007504075765609741, 0.006451867520809174, 0.004216398112475872, 0.7419893741607666, -0.026873402297496796, -9.791897773742676) 
(2023-05-26_16-35-41.801, 1685093741.799392, 1369128941.799392, -7.313215166666667, 112.789848, 27.0, 0.0024953726679086685, -0.012555116787552834, 0.0036740703508257866, 0.8229132890701294, 0.00647088885307312, -9.863814353942871) 
(2023-05-26_16-35-41.896, 1685093741.895053, 1369128941.895053, -7.313215166666667, 112.789848, 27.0, 0.00010800361633300781, 0.00893804058432579, -0.006778138689696789, 0.8942966461181641, -0.08437999337911606, -9.816054344177246) 
(2023-05-26_16-35-42.005, 1685093742.004868, 1369128942.004868, -7.313215166666667, 112.789848, 27.0, 0.0013212375342845917, -0.008296368643641472, 0.012809422798454762, 0.8085006475448608, 0.06866859644651413, -9.787123680114746) 
(2023-05-26_16-35-42.101, 1685093742.100393, 1369128942.100393, -7.313215166666667, 112.789848, 27.0, 0.0007731541991233826, 0.005199359729886055, 0.012153520248830318, 0.74204421043396, -0.0030150339007377625, -9.858939170837402) 
(2023-05-26_16-35-42.210, 1685093742.210421, 1369128942.210421, -7.313215166666667, 112.789848, 27.0, 0.00189235620200634, -0.0014760755002498627, -0.008568581193685532, 0.8467303514480591, -0.0413428470492363, -9.854291915893555) 
(2023-05-26_16-35-42.306, 1685093742.305977, 1369128942.305977, -7.313215166666667, 112.789848, 27.0, 0.0032000429928302765, 0.0015427172183990479, 0.008512885309755802, 0.7658162117004395, 0.00652679055929184, -9.854170799255371) 
(2023-05-26_16-35-42.405, 1685093742.402502, 1369128942.402502, -7.313215166666667, 112.789848, 27.0, 0.0019280221313238144, -0.004588700830936432, 0.005476902239024639, 0.8038597106933594, -0.026942260563373566, -9.815917015075684) 
(2023-05-26_16-35-42.514, 1685093742.511124, 1369128942.511124, -7.313215166666667, 112.789848, 27.0, -0.0029422324150800705, 0.005204079672694206, 0.004817100241780281, 0.7609912157058716, 0.016122914850711823, -9.801472663879395) 
(2023-05-26_16-35-42.607, 1685093742.606649, 1369128942.606649, -7.313215166666667, 112.789848, 27.0, 0.0013409759849309921, -0.0009187180548906326, 0.007903791032731533, 0.6610742807388306, 0.10221600532531738, -9.853994369506836) 
(2023-05-26_16-35-42.720, 1685093742.716541, 1369128942.716541, -7.313215, 112.789848, 26.9, -0.007859907113015652, 0.007027303799986839, 0.0023522162809967995, 0.7705168724060059, -0.0030019953846931458, -9.79670524597168) 
(2023-05-26_16-35-42.844, 1685093742.841497, 1369128942.841497, -7.313215, 112.789848, 26.9, -0.007848666980862617, 0.01317992527037859, -0.003159713465720415, 0.7706073522567749, -0.09382543712854385, -9.806340217590332) 
(2023-05-26_16-35-42.954, 1685093742.952583, 1369128942.952583, -7.313215, 112.789848, 26.9, -0.006654098629951477, 0.0015081968158483505, 0.0035949619486927986, 0.8419512510299683, -0.08432532101869583, -9.80162525177002) 
(2023-05-26_16-35-43.079, 1685093743.077375, 1369128943.077375, -7.313215, 112.789848, 26.9, -0.009710046462714672, 0.00455801747739315, 0.004184097982943058, 0.7895151376724243, 0.02566349506378174, -9.791918754577637) 
(2023-05-26_16-35-43.189, 1685093743.187419, 1369128943.187419, -7.313215, 112.789848, 26.9, -0.005462072789669037, 0.00031496211886405945, -0.004940013866871595, 0.765699028968811, 0.035255804657936096, -9.772727966308594) 
(2023-05-26_16-35-43.284, 1685093743.28263, 1369128943.28263, -7.313215, 112.789848, 26.9, 0.005021559074521065, -0.0002765730023384094, 0.004864086396992207, 0.8609838485717773, -0.02701280266046524, -9.849510192871094) 
(2023-05-26_16-35-43.395, 1685093743.393688, 1369128943.393688, -7.313215, 112.789848, 26.9, 0.002587977796792984, 0.0033859554678201675, 0.006673985160887241, 0.7229782342910767, 0.02090979740023613, -9.84453296661377) 
(2023-05-26_16-35-43.507, 1685093743.505489, 1369128943.505489, -7.313215, 112.789848, 26.9, -0.00048543326556682587, 0.0021373797208070755, 0.008497423492372036, 0.6991791725158691, 0.054380983114242554, -9.858856201171875) 
(2023-05-26_16-35-43.615, 1685093743.61406, 1369128943.61406, -7.313215, 112.789848, 26.9, 0.0007280092686414719, 0.0003090575337409973, 0.0066771069541573524, 0.737267255783081, 0.02566545456647873, -9.8637056350708) 
(2023-05-26_16-35-43.726, 1685093743.725583, 1369128943.725583, -7.313215, 112.789848, 26.9, -0.004169967025518417, 0.006428718566894531, 0.0035881688818335533, 0.7418993711471558, 0.04483933001756668, -9.767905235290527) 
(2023-05-26_16-35-43.822, 1685093743.821102, 1369128943.821102, -7.313215, 112.789848, 26.9, -0.0011668447405099869, -0.008283408358693123, 0.004867257550358772, 0.7372556924819946, 0.0017836540937423706, -9.834982872009277) 
(2023-05-26_16-35-43.917, 1685093743.916635, 1369128943.916635, -7.313215, 112.789848, 26.9, -0.004795895889401436, 0.006435394287109375, 0.0005347002297639847, 0.7847901582717896, -0.017348259687423706, -9.787149429321289) 
(2023-05-26_16-35-44.013, 1685093744.012163, 1369128944.012163, -7.313215, 112.789848, 26.9, 0.0055700745433568954, -0.01500517688691616, 0.007354668341577053, 0.6944410800933838, 0.0018211901187896729, -9.83493423461914) 
(2023-05-26_16-35-44.108, 1685093744.106897, 1369128944.106897, -7.313215, 112.789848, 26.9, 0.0038313735276460648, 0.005228793248534203, 0.007893051020801067, 0.813308835029602, 0.03519359976053238, -9.806309700012207) 
(2023-05-26_16-35-44.219, 1685093744.218438, 1369128944.218438, -7.313215, 112.789848, 26.9, 0.002642478793859482, 0.007035521790385246, 0.016426052898168564, 0.6850075721740723, -0.04121275991201401, -9.87326717376709) 
(2023-05-26_16-35-44.330, 1685093744.327845, 1369128944.327845, -7.313214666666667, 112.78984783333334, 26.9, -0.007281356491148472, 0.0021322928369045258, -0.0006809690967202187, 0.742072582244873, -0.10336016863584518, -9.806314468383789) 
(2023-05-26_16-35-44.439, 1685093744.437363, 1369128944.437363, -7.313214666666667, 112.78984783333334, 26.9, 0.00012182258069515228, 0.00769338384270668, -0.0012819943949580193, 0.6992032527923584, -0.08418264240026474, -9.772726058959961) 
(2023-05-26_16-35-44.532, 1685093744.530683, 1369128944.530683, -7.313214666666667, 112.78984783333334, 26.9, 0.0007172394543886185, -0.003995222970843315, 0.00974214170128107, 0.6564170122146606, -0.03638443350791931, -9.834914207458496) 
(2023-05-26_16-35-44.626, 1685093744.62521, 1369128944.62521, -7.313214666666667, 112.78984783333334, 26.9, -0.002306399866938591, 0.011967445723712444, 0.0011361762881278992, 0.7896013259887695, -0.060380078852176666, -9.80155086517334) 
(2023-05-26_16-35-44.736, 1685093744.734735, 1369128944.734735, -7.313214666666667, 112.78984783333334, 26.9, -0.005999509245157242, 0.008871319703757763, 0.0041837748140096664, 0.7657685279846191, -0.031668275594711304, -9.7823486328125) 
(2023-05-26_16-35-44.834, 1685093744.830251, 1369128944.830251, -7.313214666666667, 112.78984783333334, 26.9, -0.004149964079260826, 0.00024861469864845276, 0.0176435187458992, 0.7610427141189575, -0.03645861893892288, -9.806294441223145) 
(2023-05-26_16-35-44.927, 1685093744.925365, 1369128944.925365, -7.313214666666667, 112.78984783333334, 26.9, -0.004190092906355858, 0.0033651646226644516, 0.0023775454610586166, 0.6468377113342285, -0.03634095937013626, -9.777425765991211) 
(2023-05-26_16-35-45.023, 1685093745.021419, 1369128945.021419, -7.313214666666667, 112.78984783333334, 26.9, 0.0025683213025331497, 0.002170741558074951, 0.0030164672061800957, 0.694500207901001, -0.08420775085687637, -9.820616722106934) 
(2023-05-26_16-35-45.131, 1685093745.130945, 1369128945.130945, -7.313214666666667, 112.78984783333334, 26.9, -0.0010848864912986755, 0.012597033753991127, -0.0019125211983919144, 0.7325290441513062, -0.02689433842897415, -9.839783668518066) 
(2023-05-26_16-35-45.242, 1685093745.2412, 1369128945.2412, -7.313214666666667, 112.78984783333334, 26.9, -0.009113132022321224, 0.0045768581330776215, -0.0006956066936254501, 0.8181866407394409, -0.06520547717809677, -9.835114479064941) 
(2023-05-26_16-35-45.337, 1685093745.336718, 1369128945.336718, -7.313214666666667, 112.78984783333334, 26.9, 0.0006780102849006653, -0.00026321597397327423, -0.006136047653853893, 0.6753460168838501, -0.0029039382934570312, -9.772648811340332) 
(2023-05-26_16-35-45.432, 1685093745.431124, 1369128945.431124, -7.313214666666667, 112.78984783333334, 26.9, -0.004212411120533943, 0.0033847931772470474, -0.0037248958833515644, 0.6611155271530151, 0.03052961826324463, -9.834878921508789) 
(2023-05-26_16-35-45.527, 1685093745.52612, 1369128945.52612, -7.313214666666667, 112.78984783333334, 26.9, 0.00012040883302688599, 0.0021483711898326874, 0.00605869572609663, 0.708765983581543, -0.022108256816864014, -9.863702774047852) 
(2023-05-26_16-35-45.608, 1685093745.605271, 1369128945.605271, -7.313214666666667, 112.78984783333334, 26.9, -0.0029534325003623962, 0.0021326765418052673, 0.006047454662621021, 0.8561168909072876, 0.030382052063941956, -9.796781539916992) 
(2023-05-26_16-35-45.686, 1685093745.685113, 1369128945.685113, -7.313214666666667, 112.78984783333334, 26.9, -0.005435682833194733, 0.004605507478117943, -0.003733338788151741, 0.7992112636566162, -0.0891057476401329, -9.863845825195312) 
(2023-05-26_16-35-45.781, 1685093745.778485, 1369128945.778485, -7.3132145, 112.78984766666667, 26.8, -0.004825890064239502, -0.00031698308885097504, 0.0017768926918506622, 0.8893904685974121, -0.03174157440662384, -9.725010871887207) 
(2023-05-26_16-35-45.874, 1685093745.872774, 1369128945.872774, -7.3132145, 112.78984766666667, 26.8, -0.014036129228770733, 0.008869769982993603, -0.008050335571169853, 0.8181356191635132, -0.0317346453666687, -9.815936088562012) 
(2023-05-26_16-35-45.983, 1685093745.982569, 1369128945.982569, -7.3132145, 112.78984766666667, 26.8, -0.0005090814083814621, 0.002774430438876152, 0.001172519288957119, 0.7895181179046631, 0.01610667258501053, -9.787134170532227) 
(2023-05-26_16-35-46.078, 1685093746.077861, 1369128946.077861, -7.3132145, 112.78984766666667, 26.8, -0.005413282662630081, 0.01074831373989582, -0.006194048561155796, 0.818149209022522, -0.08429569751024246, -9.78722858428955) 
(2023-05-26_16-35-46.158, 1685093746.157392, 1369128946.157392, -7.3132145, 112.78984766666667, 26.8, -0.002285454422235489, 0.009484020993113518, 0.01029773149639368, 0.7278176546096802, -0.12246713787317276, -9.806309700012207) 
(2023-05-26_16-35-46.238, 1685093746.235244, 1369128946.235244, -7.3132145, 112.78984766666667, 26.8, -0.006650885567069054, 0.008284127339720726, -0.004970162641257048, 0.81804358959198, -0.03168486803770065, -9.734509468078613) 
(2023-05-26_16-35-46.332, 1685093746.330084, 1369128946.330084, -7.3132145, 112.78984766666667, 26.8, 0.0007239766418933868, -0.0009198933839797974, 0.0072912974283099174, 0.7515199184417725, -0.026890523731708527, -9.806278228759766) 
(2023-05-26_16-35-46.423, 1685093746.422853, 1369128946.422853, -7.3132145, 112.78984766666667, 26.8, 0.006826983764767647, -0.003930466249585152, -0.0006095273420214653, 0.7372688055038452, -0.031666673719882965, -9.820632934570312) 
(2023-05-26_16-35-46.502, 1685093746.501741, 1369128946.501741, -7.3132145, 112.78984766666667, 26.8, -0.007292985916137695, 0.0002937670797109604, -0.0012852931395173073, 0.7799261808395386, 0.03048977255821228, -9.729639053344727) 
(2023-05-26_16-35-46.594, 1685093746.594965, 1369128946.594965, -7.3132145, 112.78984766666667, 26.8, -0.008471112698316574, 0.0064047835767269135, 0.0041826749220490456, 0.7039444446563721, -0.04117966443300247, -9.791863441467285) 
(2023-05-26_16-35-46.671, 1685093746.6717, 1369128946.6717, -7.3132145, 112.78984766666667, 26.8, -0.009060780517756939, 0.014390824362635612, -0.00011693499982357025, 0.8799159526824951, -0.00308912992477417, -9.78246021270752) 
(2023-05-26_16-35-46.751, 1685093746.74971, 1369128946.74971, -7.3132145, 112.78984766666667, 26.8, -0.0041700080037117004, 0.003347499296069145, 0.00786974374204874, 0.7278144359588623, -0.05080125480890274, -9.858952522277832) 
(2023-05-26_16-35-46.844, 1685093746.84302, 1369128946.84302, -7.3132145, 112.78984766666667, 26.8, -0.0011085756123065948, 0.010152866132557392, -0.004955848678946495, 0.8419102430343628, -0.11774636059999466, -9.739377975463867) 
(2023-05-26_16-35-46.923, 1685093746.921564, 1369128946.921564, -7.3132145, 112.78984766666667, 26.8, 0.003145027905702591, -0.007036406546831131, 0.0054892925545573235, 0.6800534725189209, 0.035339660942554474, -9.758261680603027) 
(2023-05-26_16-35-47.004, 1685093747.000095, 1369128947.000095, -7.3132145, 112.78984766666667, 26.8, 0.0019852686673402786, 0.003988461568951607, 0.009110742248594761, 0.808527946472168, -0.036453478038311005, -9.72971248626709) 
(2023-05-26_16-35-47.098, 1685093747.095665, 1369128947.095665, -7.313214333333334, 112.7898475, 26.8, -0.0022824015468358994, 0.003935081884264946, 0.018858909606933594, 0.713538408279419, 0.016100198030471802, -9.906792640686035) 
(2023-05-26_16-35-47.190, 1685093747.189146, 1369128947.189146, -7.313214333333334, 112.7898475, 26.8, -0.004177562892436981, 0.00581914559006691, 0.0023696525022387505, 0.8942371606826782, -0.04134941101074219, -9.796868324279785) 
(2023-05-26_16-35-47.286, 1685093747.284364, 1369128947.284364, -7.313214333333334, 112.7898475, 26.8, -0.012799937278032303, 0.005788940936326981, -0.001933530904352665, 0.8132593631744385, 0.011332303285598755, -9.744056701660156) 
(2023-05-26_16-35-47.364, 1685093747.363511, 1369128947.363511, -7.313214333333334, 112.7898475, 26.8, -0.008450556546449661, 0.008235453628003597, 0.007227974943816662, 0.7800792455673218, -0.026924334466457367, -9.8206787109375) 
(2023-05-26_16-35-47.459, 1685093747.458247, 1369128947.458247, -7.313214333333334, 112.7898475, 26.8, -0.005382981151342392, 0.007024157792329788, 0.007243162952363491, 0.6469510793685913, -0.12239915877580643, -9.811006546020508) 
(2023-05-26_16-35-47.538, 1685093747.536626, 1369128947.536626, -7.313214333333334, 112.7898475, 26.8, 0.00260101817548275, 0.010769492946565151, -6.237998604774475e-05, 0.7134313583374023, 0.020935706794261932, -9.81578540802002) 
(2023-05-26_16-35-47.633, 1685093747.631723, 1369128947.631723, -7.313214333333334, 112.7898475, 26.8, -0.004747228696942329, 0.007625089026987553, 0.012125394307076931, 0.6707350015640259, -0.0029788315296173096, -9.90196704864502) 
(2023-05-26_16-35-47.727, 1685093747.726725, 1369128947.726725, -7.313214333333334, 112.7898475, 26.8, 0.0007382649928331375, -0.0003162119537591934, 0.010340546257793903, 0.832390308380127, -0.012627661228179932, -9.815940856933594) 
(2023-05-26_16-35-47.807, 1685093747.806698, 1369128947.806698, -7.313214333333334, 112.7898475, 26.8, 0.0037853270769119263, -0.0002769622951745987, 0.0030288565903902054, 0.7466796636581421, -0.012508675456047058, -9.743995666503906) 
(2023-05-26_16-35-47.902, 1685093747.900407, 1369128947.900407, -7.313214333333334, 112.7898475, 26.8, -0.002367716282606125, -0.0009198859333992004, 0.002398102544248104, 0.7799792289733887, 0.06868191063404083, -9.806251525878906) 
(2023-05-26_16-35-47.995, 1685093747.995117, 1369128947.995117, -7.313214333333334, 112.7898475, 26.8, -0.009651470929384232, 0.012517755851149559, 0.009040399454534054, 0.7752735614776611, 0.01610454171895981, -9.811067581176758) 
(2023-05-26_16-35-48.075, 1685093748.075122, 1369128948.075122, -7.313214333333334, 112.7898475, 26.8, -0.01154354028403759, 0.011934100650250912, -0.0031692557968199253, 0.8181151151657104, -0.026945985853672028, -9.801563262939453) 
(2023-05-26_16-35-48.171, 1685093748.168918, 1369128948.168918, -7.313214333333334, 112.7898475, 26.8, -0.015258969739079475, 0.008857603184878826, -0.006224099546670914, 0.832399845123291, -0.06040883809328079, -9.787229537963867) 
(2023-05-26_16-35-48.266, 1685093748.263383, 1369128948.263383, -7.313214333333334, 112.7898475, 26.8, -0.011506891809403896, 0.015599370934069157, 0.0017008576542139053, 0.8277045488357544, -0.050882987678050995, -9.849486351013184) 
(2023-05-26_16-35-48.359, 1685093748.357986, 1369128948.357986, -7.313214333333334, 112.7898475, 26.8, -0.006646031513810158, 0.003966104239225388, 0.0023665791377425194, 0.7610907554626465, -0.06037262827157974, -9.8302583694458) 
(2023-05-26_16-35-48.438, 1685093748.436884, 1369128948.436884, -7.313214166666667, 112.78984733333333, 26.7, -0.005423152819275856, 0.007059488445520401, -0.003741231746971607, 0.6706128120422363, -0.03635595738887787, -9.767873764038086) 
(2023-05-26_16-35-48.535, 1685093748.532399, 1369128948.532399, -7.313214166666667, 112.78984733333333, 26.7, -0.0005510933697223663, -0.0015023723244667053, -0.004305864684283733, 0.7086764574050903, -0.012504592537879944, -9.791851043701172) 
(2023-05-26_16-35-48.629, 1685093748.627576, 1369128948.627576, -7.313214166666667, 112.78984733333333, 26.7, -0.0011184420436620712, 0.006464041769504547, -0.002503031864762306, 0.7277554273605347, -0.06987974792718887, -9.79190731048584) 
(2023-05-26_16-35-48.706, 1685093748.705092, 1369128948.705092, -7.313214166666667, 112.78984733333333, 26.7, 0.011676764115691185, -0.009391477331519127, -0.011558178812265396, 0.8035541772842407, 0.11177361756563187, -9.652979850769043) 
(2023-05-26_16-35-48.802, 1685093748.800677, 1369128948.800677, -7.313214166666667, 112.78984733333333, 26.7, -0.00537620484828949, 0.013180703856050968, 0.0005107456818223, 0.8894926309585571, -0.055684857070446014, -9.79687213897705) 
(2023-05-26_16-35-48.897, 1685093748.894198, 1369128948.894198, -7.313214166666667, 112.78984733333333, 26.7, 0.007470885291695595, 0.0052908118814229965, -0.005518832243978977, 0.7942957878112793, 0.05431221053004265, -9.835015296936035) 
(2023-05-26_16-35-49.007, 1685093749.005734, 1369128949.005734, -7.313214166666667, 112.78984733333333, 26.7, -0.001878516748547554, -0.011898821219801903, -0.01648169942200184, 0.732333779335022, 0.035320132970809937, -9.71521282196045) 
(2023-05-26_16-35-49.105, 1685093749.102303, 1369128949.102303, -7.313214166666667, 112.78984733333333, 26.7, -0.011513546109199524, 0.018686477094888687, -0.004411450587213039, 0.8276082277297974, 0.05905410647392273, -9.849419593811035) 
(2023-05-26_16-35-49.198, 1685093749.196833, 1369128949.196833, -7.313214166666667, 112.78984733333333, 26.7, 0.0024824533611536026, -0.01069500483572483, -0.0024342909455299377, 0.7468609809875488, -0.10815883427858353, -9.830270767211914) 
(2023-05-26_16-35-49.291, 1685093749.290843, 1369128949.290843, -7.313214166666667, 112.78984733333333, 26.7, -0.008449184708297253, 0.010699250735342503, 0.004168861545622349, 0.8798966407775879, 0.006476476788520813, -9.77287483215332) 
(2023-05-26_16-35-49.387, 1685093749.386382, 1369128949.386382, -7.313214166666667, 112.78984733333333, 26.7, -0.0017556529492139816, -0.002763122320175171, 0.0042370036244392395, 0.8086172342300415, -0.08905551582574844, -9.768061637878418) 
(2023-05-26_16-35-49.481, 1685093749.480929, 1369128949.480929, -7.313214166666667, 112.78984733333333, 26.7, -0.006038861349225044, 0.0033596735447645187, 0.0011503128334879875, 0.8514971733093262, -0.04612981528043747, -9.859089851379395) 
(2023-05-26_16-35-49.577, 1685093749.575439, 1369128949.575439, -7.313214166666667, 112.78984733333333, 26.7, -0.008493899367749691, 0.004576073959469795, 0.0005271304398775101, 0.7943087816238403, -0.022136472165584564, -9.787163734436035) 
(2023-05-26_16-35-49.675, 1685093749.671252, 1369128949.671252, -7.313214166666667, 112.78984733333333, 26.7, -0.010358289815485477, 0.00458432175219059, -0.004971812013536692, 0.8085561990737915, -0.03169117122888565, -9.758447647094727) 
(2023-05-26_16-35-49.768, 1685093749.766665, 1369128949.766665, -7.313214166666667, 112.78984733333333, 26.7, -0.007257156074047089, 0.009506016969680786, -0.004366113804280758, 0.8370803594589233, 0.02084777131676674, -9.782397270202637) 
(2023-05-26_16-35-49.881, 1685093749.878198, 1369128949.878198, -7.313214, 112.78984733333333, 26.7, -0.01036322396248579, 0.0027399081736803055, -0.003745404537767172, 0.8085864782333374, 0.0017357319593429565, -9.811113357543945) 
(2023-05-26_16-35-49.975, 1685093749.973714, 1369128949.973714, -7.313214, 112.78984733333333, 26.7, -0.0035511665046215057, 0.007660809904336929, 0.0029762256890535355, 0.8323493003845215, -0.04604870826005936, -9.753693580627441) 
(2023-05-26_16-35-50.071, 1685093750.069247, 1369128950.069247, -7.313214, 112.78984733333333, 26.7, -0.00971450936049223, 0.004561943933367729, 0.002963609993457794, 0.7895323038101196, -0.012566708028316498, -9.777572631835938) 
(2023-05-26_16-35-50.180, 1685093750.178353, 1369128950.178353, -7.313214, 112.78984733333333, 26.7, -0.011000780388712883, 0.0009080599993467331, -0.007403198163956404, 0.8085559606552124, -0.07468952983617783, -9.724945068359375) 
(2023-05-26_16-35-50.288, 1685093750.287257, 1369128950.287257, -7.313214, 112.78984733333333, 26.7, -0.002935495227575302, 0.008279407396912575, 0.002366255037486553, 0.8276853561401367, -0.04131738096475601, -9.839900016784668) 
(2023-05-26_16-35-50.385, 1685093750.382792, 1369128950.382792, -7.313214, 112.78984733333333, 26.7, -0.006080402061343193, 0.0009312070906162262, -0.006774968467652798, 0.8132288455963135, 0.040014468133449554, -9.739249229431152) 
(2023-05-26_16-35-50.527, 1685093750.524762, 1369128950.524762, -7.313214, 112.78984733333333, 26.7, 0.00867304764688015, -0.005771350115537643, 0.0024543562904000282, 0.6802071332931519, -0.041185162961483, -9.834944725036621) 
(2023-05-26_16-35-50.622, 1685093750.620319, 1369128950.620319, -7.313214, 112.78984733333333, 26.7, 0.001976342871785164, 0.003996312618255615, 0.006669764406979084, 0.6896578073501587, -0.036381423473358154, -9.782265663146973) 
(2023-05-26_16-35-50.730, 1685093750.728504, 1369128950.728504, -7.313214, 112.78984733333333, 26.7, -0.0005291663110256195, 0.0027920957654714584, -0.004319677595049143, 0.6705605983734131, -0.007662080228328705, -9.74390697479248) 
(2023-05-26_16-35-50.824, 1685093750.823316, 1369128950.823316, -7.313214, 112.78984733333333, 26.7, -0.004796326160430908, 0.0076682716608047485, -0.0012999800965189934, 0.6945158243179321, -0.1081041768193245, -9.815842628479004) 
(2023-05-26_16-35-50.933, 1685093750.932836, 1369128950.932836, -7.313214, 112.78984733333333, 26.7, 0.0019517522305250168, 0.0009366851300001144, 0.004238653928041458, 0.8038183450698853, 0.001745760440826416, -9.801529884338379) 
(2023-05-26_16-35-51.027, 1685093751.025848, 1369128951.025848, -7.313214, 112.78984733333333, 26.7, 0.0013378839939832687, 0.0015490036457777023, 0.0036241887137293816, 0.6469060182571411, -0.10804196447134018, -9.78226089477539) 
(2023-05-26_16-35-51.121, 1685093751.120719, 1369128951.120719, -7.313214, 112.78984733333333, 26.7, 0.0055992491543293, -0.0027058254927396774, -0.0018384596332907677, 0.7418767213821411, 0.08307246118783951, -9.777460098266602) 
(2023-05-26_16-35-51.203, 1685093751.200241, 1369128951.200241, -7.313214, 112.78984733333333, 26.7, -0.005365557968616486, 0.00824133399873972, 0.010290437377989292, 0.7515935897827148, -0.09859449416399002, -9.815901756286621) 
(2023-05-26_16-35-51.281, 1685093751.280277, 1369128951.280277, -7.313214, 112.78984733333333, 26.7, -0.005376715213060379, 0.008251148276031017, 0.007239216007292271, 0.8942310810089111, -0.06523413211107254, -9.772934913635254) 
(2023-05-26_16-35-51.377, 1685093751.37566, 1369128951.37566, -7.313213833333333, 112.78984733333333, 26.6, -0.004210609942674637, 0.00461571104824543, -0.004949330352246761, 0.789637565612793, -0.04606681317090988, -9.844649314880371) 
(2023-05-26_16-35-51.456, 1685093751.455169, 1369128951.455169, -7.313213833333333, 112.78984733333333, 26.6, -0.004790961742401123, 0.008279805071651936, -0.0006917091086506844, 0.7515953779220581, -0.11292824894189835, -9.806330680847168) 
(2023-05-26_16-35-51.536, 1685093751.534609, 1369128951.534609, -7.313213833333333, 112.78984733333333, 26.6, -0.004191895946860313, 0.0021342486143112183, 0.0036019813269376755, 0.6897138357162476, -0.007746107876300812, -9.854093551635742) 
(2023-05-26_16-35-51.631, 1685093751.629317, 1369128951.629317, -7.313213833333333, 112.78984733333333, 26.6, -0.0016961749643087387, 0.00581207312643528, 0.00848108809441328, 0.7039421796798706, -0.007735192775726318, -9.815792083740234) 
(2023-05-26_16-35-51.711, 1685093751.709046, 1369128951.709046, -7.313213833333333, 112.78984733333333, 26.6, 0.0044152457267045975, -0.002135900780558586, 0.009749711491167545, 0.718287467956543, -0.03645329177379608, -9.858933448791504) 
(2023-05-26_16-35-51.804, 1685093751.801488, 1369128951.801488, -7.313213833333333, 112.78984733333333, 26.6, -0.010369919240474701, 0.0027457978576421738, -0.005576136987656355, 0.8609694242477417, -0.041337788105010986, -9.825569152832031) 
(2023-05-26_16-35-51.899, 1685093751.896161, 1369128951.896161, -7.313213833333333, 112.78984733333333, 26.6, -0.002349434420466423, -0.00216846726834774, 0.009114737622439861, 0.7514797449111938, 0.006574444472789764, -9.79667854309082) 
(2023-05-26_16-35-51.992, 1685093751.991181, 1369128951.991181, -7.313213833333333, 112.78984733333333, 26.6, -0.009146607480943203, 0.004606300964951515, -0.00984926987439394, 0.8133071660995483, 0.0495273694396019, -9.81588077545166) 
(2023-05-26_16-35-52.071, 1685093752.070615, 1369128952.070615, -7.313213833333333, 112.78984733333333, 26.6, -0.00475027970969677, 0.013174029998481274, 0.0035642143338918686, 0.7135031223297119, -0.07943285256624222, -9.801477432250977) 
(2023-05-26_16-35-52.149, 1685093752.14816, 1369128952.14816, -7.313213833333333, 112.78984733333333, 26.6, -0.008448714390397072, 0.012547587975859642, 0.0017219651490449905, 0.7325090169906616, -0.08421476930379868, -9.777551651000977) 
(2023-05-26_16-35-52.244, 1685093752.243492, 1369128952.243492, -7.313213833333333, 112.78984733333333, 26.6, 0.00016105175018310547, 0.003961376845836639, 0.014596194960176945, 0.6849232912063599, -0.07461037486791611, -9.772704124450684) 
(2023-05-26_16-35-52.323, 1685093752.323044, 1369128952.323044, -7.313213833333333, 112.78984733333333, 26.6, 0.003754556179046631, 0.0015988536179065704, -0.007961458526551723, 0.765852689743042, -0.04126901924610138, -9.849411010742188) 
(2023-05-26_16-35-52.418, 1685093752.417897, 1369128952.417897, -7.313213833333333, 112.78984733333333, 26.6, 0.0012980606406927109, -0.005810979753732681, 0.003037623129785061, 0.7277240753173828, -0.06508523970842361, -9.767955780029297) 
(2023-05-26_16-35-52.499, 1685093752.497359, 1369128952.497359, -7.313213833333333, 112.78984733333333, 26.6, -0.006620543077588081, 0.00764118880033493, 0.0041854726150631905, 0.8419057130813599, -0.050857432186603546, -9.78723430633545) 
(2023-05-26_16-35-52.577, 1685093752.576716, 1369128952.576716, -7.313213833333333, 112.78984733333333, 26.6, -0.007217457517981529, 0.007622347213327885, 0.009065180085599422, 0.884745717048645, -0.036575838923454285, -9.820802688598633) 
(2023-05-26_16-35-52.673, 1685093752.670878, 1369128952.670878, -7.3132135, 112.7898475, 26.5, -0.01088637113571167, 0.011899945326149464, 0.008427632041275501, 0.7896828651428223, -0.12253307551145554, -9.82553768157959) 
(2023-05-26_16-35-52.765, 1685093752.76384, 1369128952.76384, -7.3132135, 112.7898475, 26.5, -0.009073781780898571, 0.01008850522339344, 0.0023378534242510796, 0.8133690357208252, -0.08905675262212753, -9.763278007507324) 
(2023-05-26_16-35-52.862, 1685093752.859316, 1369128952.859316, -7.3132135, 112.7898475, 26.5, -0.008448714390397072, 0.012547587975859642, 0.0017219651490449905, 0.727690577507019, -0.026846252381801605, -9.767932891845703) 
(2023-05-26_16-35-52.939, 1685093752.938688, 1369128952.938688, -7.3132135, 112.7898475, 26.5, -0.002938751131296158, -0.0015777386724948883, 0.0152129540219903, 0.694499135017395, -0.04598633199930191, -9.849333763122559) 
(2023-05-26_16-35-53.019, 1685093753.018247, 1369128953.018247, -7.3132135, 112.7898475, 26.5, -0.0017162598669528961, 0.0058297403156757355, 0.0029888898134231567, 0.7371923923492432, -0.012514971196651459, -9.767934799194336) 
(2023-05-26_16-35-53.114, 1685093753.111345, 1369128953.111345, -7.3132135, 112.7898475, 26.5, 0.005551401525735855, -0.009442495182156563, -0.005478218197822571, 0.789557695388794, 0.001752413809299469, -9.811092376708984) 
(2023-05-26_16-35-53.206, 1685093753.204211, 1369128953.204211, -7.3132135, 112.7898475, 26.5, 0.004406871274113655, 0.005882721394300461, -0.003701314330101013, 0.8133434057235718, -0.041266798973083496, -9.777616500854492) 
(2023-05-26_16-35-53.299, 1685093753.29891, 1369128953.29891, -7.3132135, 112.7898475, 26.5, -0.005442928522825241, -0.003399377688765526, 0.005445978604257107, 0.8085088729858398, 0.016110487282276154, -9.753628730773926) 
(2023-05-26_16-35-53.379, 1685093753.378155, 1369128953.378155, -7.3132135, 112.7898475, 26.5, -0.010307739488780499, 0.013167370110750198, -0.003168706316500902, 0.8229613304138184, -0.1655489206314087, -9.77291488647461) 
(2023-05-26_16-35-53.456, 1685093753.456449, 1369128953.456449, -7.3132135, 112.7898475, 26.5, -0.013378447853028774, 0.013765170238912106, -0.003181920386850834, 0.7562037706375122, -0.01729980856180191, -9.748800277709961) 
(2023-05-26_16-35-53.550, 1685093753.550999, 1369128953.550999, -7.3132135, 112.7898475, 26.5, -0.003559662029147148, 0.006435781717300415, 0.002369927242398262, 0.5850999355316162, -0.08889756351709366, -9.830076217651367) 
(2023-05-26_16-35-53.630, 1685093753.629341, 1369128953.629341, -7.3132135, 112.7898475, 26.5, -0.00353202223777771, 0.003946468234062195, 0.013362214900553226, 0.7942311763763428, -0.007761724293231964, -9.7296781539917) 
(2023-05-26_16-35-53.711, 1685093753.708305, 1369128953.708305, -7.3132135, 112.7898475, 26.5, 0.006218438968062401, -0.005787830799818039, 0.0036658532917499542, 0.6991626024246216, -0.03160695731639862, -9.777482032775879) 
(2023-05-26_16-35-53.807, 1685093753.803381, 1369128953.803381, -7.3132135, 112.7898475, 26.5, -0.004182068631052971, 0.002741854637861252, 0.0054307421669363976, 0.8894065618515015, 0.07335707545280457, -9.820740699768066) 
(2023-05-26_16-35-53.899, 1685093753.898835, 1369128953.898835, -7.3132135, 112.7898475, 26.5, 0.0007244870066642761, 0.0040096621960401535, 0.0005628271028399467, 0.7325555086135864, -0.05079663544893265, -9.844588279724121) 
(2023-05-26_16-35-53.996, 1685093753.993466, 1369128953.993466, -7.3132135, 112.7898475, 26.5, -0.005434822291135788, 0.0021397490054368973, -6.398092955350876e-05, 0.8419075012207031, -0.06519118696451187, -9.777664184570312) 
(2023-05-26_16-35-54.074, 1685093754.072818, 1369128954.072818, -7.3132135, 112.7898475, 26.5, -0.013354369439184666, 0.011895240284502506, 0.0059776632115244865, 0.8324071168899536, -0.031747154891490936, -9.81595230102539) 
(2023-05-26_16-35-54.167, 1685093754.16658, 1369128954.16658, -7.3132135, 112.7898475, 26.5, -0.004157910123467445, 0.007034361362457275, 0.006027172319591045, 0.7563669681549072, -0.09860744327306747, -9.830276489257812) 
(2023-05-26_16-35-54.246, 1685093754.245783, 1369128954.245783, -7.3132135, 112.7898475, 26.5, -0.008496090769767761, 0.007659251801669598, -0.004364690277725458, 0.6896880865097046, -0.002954520285129547, -9.834931373596191) 
(2023-05-26_16-35-54.340, 1685093754.339694, 1369128954.339694, -7.3132135, 112.7898475, 26.5, -0.004200780764222145, 0.0052233170717954636, -0.0031205713748931885, 0.770636796951294, -0.08428619056940079, -9.839861869812012) 
(2023-05-26_16-35-54.437, 1685093754.435217, 1369128954.435217, -7.3132135, 112.7898475, 26.5, 0.0013115741312503815, 0.003420894965529442, -0.006145638879388571, 0.713434100151062, -0.031619466841220856, -9.777498245239258) 
(2023-05-26_16-35-54.515, 1685093754.51391, 1369128954.51391, -7.3132135, 112.7898475, 26.5, -0.0029735565185546875, -0.0009308755397796631, 0.004836833104491234, 0.7799712419509888, 0.01613258570432663, -9.75838565826416) 
(2023-05-26_16-35-54.610, 1685093754.609697, 1369128954.609697, -7.3132135, 112.7898475, 26.5, 0.0031790565699338913, 0.0009449254721403122, 0.003632906824350357, 0.7705115079879761, -0.0029990673065185547, -9.791914939880371) 
(2023-05-26_16-35-54.689, 1685093754.688708, 1369128954.688708, -7.3132135, 112.7898475, 26.5, -0.005395039916038513, 0.006418514996767044, 0.004804161377251148, 0.8990051746368408, -0.04135943949222565, -9.806453704833984) 
(2023-05-26_16-35-54.768, 1685093754.767693, 1369128954.767693, -7.3132135, 112.7898475, 26.5, -0.00722415279597044, 0.007628235965967178, 0.00723444577306509, 0.7944077253341675, -0.07952132076025009, -9.830307006835938) 
(2023-05-26_16-35-54.862, 1685093754.862752, 1369128954.862752, -7.3132135, 112.7898475, 26.5, -0.010941733606159687, 0.01071613747626543, -0.004993793088942766, 0.7515950202941895, -0.05081918090581894, -9.8541898727417) 
(2023-05-26_16-35-54.941, 1685093754.940876, 1369128954.940876, -7.3132135, 112.7898475, 26.5, -0.003559192642569542, 0.008284119889140129, -7.696915417909622e-05, 0.7659022808074951, -0.12251513451337814, -9.830301284790039) 
(2023-05-26_16-35-55.040, 1685093755.036054, 1369128955.036054, -7.3132135, 112.7898475, 26.5, 0.007471274584531784, 0.0009767133742570877, 0.0005974229425191879, 0.7277892827987671, -0.022122010588645935, -9.858935356140137) 
(2023-05-26_16-35-55.131, 1685093755.128847, 1369128955.128847, -7.3132135, 112.7898475, 26.5, 0.0025326143950223923, 0.002202145755290985, -0.006747440434992313, 0.7277277708053589, -0.05075440555810928, -9.782317161560059) 
(2023-05-26_16-35-55.223, 1685093755.222467, 1369128955.222467, -7.3132135, 112.7898475, 26.5, 0.010511601343750954, -0.0020593665540218353, -0.004263423848897219, 0.7135369777679443, -0.031675100326538086, -9.868504524230957) 
(2023-05-26_16-35-55.319, 1685093755.317986, 1369128955.317986, -7.313213333333334, 112.78984716666666, 26.5, 0.0013553071767091751, 0.002766180783510208, 0.006671463139355183, 0.7943705320358276, -0.05561316758394241, -9.815923690795898) 
(2023-05-26_16-35-55.398, 1685093755.397259, 1369128955.397259, -7.313213333333334, 112.78984716666666, 26.5, -0.0011547431349754333, -0.0045965444296598434, 0.003024684265255928, 0.7229229211807251, 0.01616213470697403, -9.791850090026855) 
(2023-05-26_16-35-55.494, 1685093755.492805, 1369128955.492805, -7.313213333333334, 112.78984716666666, 26.5, -0.006688475608825684, 0.000922180712223053, -0.004946483299136162, 0.7657896280288696, -0.012569278478622437, -9.815865516662598) 
(2023-05-26_16-35-55.572, 1685093755.571327, 1369128955.571327, -7.313213333333334, 112.78984716666666, 26.5, -0.004808077588677406, -0.003413904458284378, 0.010940424166619778, 0.7468129396438599, -0.08424485474824905, -9.806307792663574) 
(2023-05-26_16-35-55.651, 1685093755.64985, 1369128955.64985, -7.313213333333334, 112.78984716666666, 26.5, -0.0017628185451030731, -0.004605572670698166, 0.004853169433772564, 0.7849502563476562, -0.13209742307662964, -9.8399076461792) 
(2023-05-26_16-35-55.745, 1685093755.743939, 1369128955.743939, -7.313213333333334, 112.78984716666666, 26.5, -0.000571688637137413, -0.006414264440536499, -0.00306959031149745, 0.7278093099594116, -0.11290738731622696, -9.806303977966309) 
(2023-05-26_16-35-55.824, 1685093755.822976, 1369128955.822976, -7.313213333333334, 112.78984716666666, 26.5, -0.0013382304459810257, -0.04141020029783249, 0.004363568499684334, 0.7658154964447021, -0.017360858619213104, -9.835026741027832) 
(2023-05-26_16-35-55.918, 1685093755.916529, 1369128955.916529, -7.313213333333334, 112.78984716666666, 26.5, 0.0004643648862838745, -0.056154124438762665, 0.013571332208812237, 0.6659361124038696, -0.0602833554148674, -9.82056999206543) 
(2023-05-26_16-35-55.998, 1685093755.996156, 1369128955.996156, -7.313213333333334, 112.78984716666666, 26.5, -0.01064926479011774, -0.05986608564853668, 0.005609533749520779, 0.6659220457077026, 0.011388391256332397, -9.86363410949707) 
(2023-05-26_16-35-56.074, 1685093756.073574, 1369128956.073574, -7.313213333333334, 112.78984716666666, 26.5, -0.009818312712013721, -0.014450529590249062, 0.001194048672914505, 0.46607983112335205, 0.0020301565527915955, -9.820305824279785) 
(2023-05-26_16-35-56.152, 1685093756.15223, 1369128956.15223, -7.313213333333334, 112.78984716666666, 26.5, -0.005270088091492653, 0.03835365176200867, -0.005672601517289877, 0.4803563058376312, 0.021125428378582, -9.839469909667969) 
(2023-05-26_16-35-56.231, 1685093756.230106, 1369128956.230106, -7.313213333333334, 112.78984716666666, 26.5, 0.00568796694278717, 0.13594496250152588, -0.003507156390696764, 0.44709402322769165, -0.08397331088781357, -9.79159927368164) 
(2023-05-26_16-35-56.310, 1685093756.309825, 1369128956.309825, -7.313213333333334, 112.78984716666666, 26.5, -0.023622922599315643, 0.04187764227390289, 0.013775927014648914, 1.5173386335372925, 0.02981698513031006, -9.773580551147461) 
(2023-05-26_16-35-56.407, 1685093756.403512, 1369128956.403512, -7.313213333333334, 112.78984716666666, 26.5, -0.0040237270295619965, -0.1978236883878708, -0.0067346300929784775, -1.1411643028259277, 0.3948330879211426, -10.728302955627441) 
(2023-05-26_16-35-56.499, 1685093756.49848, 1369128956.49848, -7.313213333333334, 112.78984716666666, 26.5, -0.030880916863679886, 0.045432623475790024, 0.04119810089468956, 1.6630369424819946, 1.1342747211456299, -9.059398651123047) 
(2023-05-26_16-35-56.594, 1685093756.592956, 1369128956.592956, -7.313213166666666, 112.78984683333333, 26.5, 0.06106024980545044, 0.012866964563727379, 0.012960405088961124, 0.528698205947876, -0.22776836156845093, -10.328230857849121) 
(2023-05-26_16-35-56.674, 1685093756.671694, 1369128956.671694, -7.313213166666666, 112.78984683333333, 26.5, -0.0966239869594574, -0.028958378359675407, -0.013113178312778473, 1.2076302766799927, 0.3743414282798767, -9.605379104614258) 
(2023-05-26_16-35-56.770, 1685093756.766206, 1369128956.766206, -7.313213166666666, 112.78984683333333, 26.5, -0.010688348673284054, 0.06780458986759186, -0.015551459975540638, 0.36611199378967285, -0.32272329926490784, -9.509058952331543) 
(2023-05-26_16-35-56.862, 1685093756.860243, 1369128956.860243, -7.313213166666666, 112.78984683333333, 26.5, 0.004797391593456268, -0.04198445379734039, 0.0019470471888780594, 0.6084061861038208, 0.42732253670692444, -9.805839538574219) 
(2023-05-26_16-35-56.940, 1685093756.939017, 1369128956.939017, -7.313213166666666, 112.78984683333333, 26.5, -0.045039013028144836, 0.06941040605306625, 0.0026240479201078415, 1.0088444948196411, -0.35222911834716797, -9.940879821777344) 
(2023-05-26_16-35-57.034, 1685093757.032548, 1369128957.032548, -7.313213166666666, 112.78984683333333, 26.5, 0.009758876636624336, -0.038299962878227234, 0.008665879257023335, 0.7083147764205933, 0.2456817626953125, -9.67194938659668) 
(2023-05-26_16-35-57.111, 1685093757.110886, 1369128957.110886, -7.313213166666666, 112.78984683333333, 26.5, -0.019359756261110306, 0.0388537272810936, 0.0070888446643948555, 0.9515602588653564, -0.23740941286087036, -9.854530334472656) 
(2023-05-26_16-35-57.192, 1685093757.19092, 1369128957.19092, -7.313213166666666, 112.78984683333333, 26.5, 0.013417573645710945, -0.03887106478214264, 0.0013584112748503685, 0.6181826591491699, 0.09751758724451065, -9.782102584838867) 
(2023-05-26_16-35-57.287, 1685093757.286423, 1369128957.286423, -7.313213166666666, 112.78984683333333, 26.5, -0.019498325884342194, 0.023569338023662567, -0.009338416159152985, 0.8418370485305786, -0.06515311449766159, -9.715397834777832) 
(2023-05-26_16-35-57.365, 1685093757.365901, 1369128957.365901, -7.313213166666666, 112.78984683333333, 26.5, 0.007534744217991829, 0.007699646055698395, 0.008508889935910702, 0.7231518030166626, -0.04129297286272049, -9.949946403503418) 
(2023-05-26_16-35-57.461, 1685093757.460722, 1369128957.460722, -7.313213166666666, 112.78984683333333, 26.5, -0.02813507243990898, 0.01677301526069641, -0.008127696812152863, 0.9180101156234741, -0.007919937372207642, -9.811243057250977) 
(2023-05-26_16-35-57.540, 1685093757.539213, 1369128957.539213, -7.313213166666666, 112.78984683333333, 26.5, 0.01487613283097744, -0.0014749318361282349, 0.011616691015660763, 0.5090020895004272, -0.17005938291549683, -9.782142639160156) 
(2023-05-26_16-35-57.636, 1685093757.634732, 1369128957.634732, -7.313213166666666, 112.78984683333333, 26.5, -0.009016064926981926, 0.020514002069830894, 0.0035247979685664177, 0.8703885078430176, 0.030369538813829422, -9.796797752380371) 
(2023-05-26_16-35-57.732, 1685093757.729244, 1369128957.729244, -7.313213166666666, 112.78984683333333, 26.5, -0.003654029220342636, -0.007654989138245583, -0.00368712842464447, 0.6659494638442993, -0.05073533207178116, -9.839723587036133) 
(2023-05-26_16-35-57.809, 1685093757.807134, 1369128957.807134, -7.313213166666666, 112.78984683333333, 26.5, 0.008077546954154968, -0.0002451743930578232, -6.627291440963745e-06, 0.803830623626709, 0.04951521381735802, -9.849398612976074) 
(2023-05-26_16-35-57.902, 1685093757.89998, 1369128957.89998, -7.313213166666666, 112.78984666666666, 26.5, -0.011543232947587967, 0.0014575663954019547, 0.0115101533010602, 0.6897681951522827, -0.11288280040025711, -9.820629119873047) 
(2023-05-26_16-35-57.995, 1685093757.994177, 1369128957.994177, -7.313213166666666, 112.78984666666666, 26.5, 0.009960299357771873, 0.004660429432988167, 0.00364579726010561, 0.9416505098342896, 0.016025923192501068, -9.701092720031738) 
(2023-05-26_16-35-58.089, 1685093758.088952, 1369128958.088952, -7.313213166666666, 112.78984666666666, 26.5, -0.007302342914044857, 0.00153450109064579, -0.005560949444770813, 0.6945376396179199, -0.06511753052473068, -9.86850357055664) 
(2023-05-26_16-35-58.168, 1685093758.167129, 1369128958.167129, -7.313213166666666, 112.78984666666666, 26.5, -0.002940349280834198, 0.012597430497407913, -0.0049704862758517265, 0.9417891502380371, -0.055713169276714325, -9.768192291259766) 
(2023-05-26_16-35-58.247, 1685093758.246177, 1369128958.246177, -7.313213166666666, 112.78984666666666, 26.5, -0.01157623715698719, 0.0033353492617607117, -9.040907025337219e-05, 0.5992859601974487, 0.02102116495370865, -9.839604377746582) 
(2023-05-26_16-35-58.343, 1685093758.341414, 1369128958.341414, -7.313213166666666, 112.78984666666666, 26.5, 0.0013843998312950134, 0.008903099223971367, 0.006041486747562885, 0.8420162200927734, -0.08436045795679092, -9.859102249145508) 
(2023-05-26_16-35-58.419, 1685093758.418969, 1369128958.418969, -7.313213166666666, 112.78984666666666, 26.5, -0.0060769617557525635, -0.008931828662753105, 0.00790246482938528, 0.6228756308555603, 0.121436208486557, -9.7437744140625) 
(2023-05-26_16-35-58.497, 1685093758.496993, 1369128958.496993, -7.313213166666666, 112.78984666666666, 26.5, 0.0038751885294914246, 0.010736513882875443, 0.01214700099080801, 0.841954231262207, -0.09388213604688644, -9.796841621398926) 
(2023-05-26_16-35-58.592, 1685093758.591064, 1369128958.591064, -7.313213166666666, 112.78984666666666, 26.5, -0.012816030532121658, 0.003954343497753143, -0.003758343867957592, 0.8181530237197876, -0.026966482400894165, -9.835091590881348) 
(2023-05-26_16-35-58.670, 1685093758.669876, 1369128958.669876, -7.313213166666666, 112.78984666666666, 26.5, -0.004233866930007935, 0.0009386613965034485, -0.006157979369163513, 0.8182003498077393, -0.07476814836263657, -9.839910507202148) 
(2023-05-26_16-35-58.765, 1685093758.765293, 1369128958.765293, -7.313213166666666, 112.78984666666666, 26.5, -0.004126666113734245, 0.007006879895925522, 0.014570591039955616, 0.7467716932296753, -0.012558452785015106, -9.825422286987305) 
(2023-05-26_16-35-58.859, 1685093758.859238, 1369128958.859238, -7.313213166666666, 112.78984666666666, 26.5, -0.010312714613974094, 0.008241740055382252, 0.0023392774164676666, 0.784761905670166, -0.02211056649684906, -9.758414268493652) 
(2023-05-26_16-35-58.940, 1685093758.937496, 1369128958.937496, -7.313213166666666, 112.78984666666666, 26.5, -0.0010732579976320267, 0.014435556717216969, -0.0013081971555948257, 0.7373033761978149, -0.10812706500291824, -9.79194164276123) 
(2023-05-26_16-35-59.035, 1685093759.032946, 1369128959.032946, -7.313213166666666, 112.78984666666666, 26.5, -0.00606435164809227, -0.0003154110163450241, -0.000668579712510109, 0.7800641059875488, -0.06513697654008865, -9.777593612670898) 
(2023-05-26_16-35-59.128, 1685093759.127432, 1369128959.127432, -7.313213166666666, 112.78984666666666, 26.5, 0.005629202350974083, 0.0009653326123952866, 0.0012009209021925926, 0.8939199447631836, 0.17859211564064026, -9.686569213867188) 
(2023-05-26_16-35-59.222, 1685093759.220591, 1369128959.220591, -7.313213166666666, 112.7898465, 26.5, 0.010515162721276283, -0.0026787500828504562, -0.002430717460811138, 0.6800804138183594, -0.007673345506191254, -9.748708724975586) 
(2023-05-26_16-35-59.300, 1685093759.29983, 1369128959.29983, -7.313213166666666, 112.7898465, 26.5, 0.006240447983145714, 0.004669073969125748, -0.004911111202090979, 0.7561862468719482, -0.022067971527576447, -9.729644775390625) 
(2023-05-26_16-35-59.396, 1685093759.395457, 1369128959.395457, -7.313213166666666, 112.7898465, 26.5, -0.004230774939060211, -0.0015290584415197372, -0.0018783770501613617, 0.6992502212524414, -0.06987523287534714, -9.825404167175293) 
(2023-05-26_16-35-59.476, 1685093759.475006, 1369128959.475006, -7.313213166666666, 112.7898465, 26.5, -0.014020896516740322, 0.01317012682557106, -0.009894881397485733, 0.8563410043716431, -0.15128827095031738, -9.8543701171875) 
(2023-05-26_16-35-59.699, 1685093759.697066, 1369128959.697066, -7.313213166666666, 112.7898465, 26.5, 0.0019020605832338333, -0.01011211983859539, 0.006104906089603901, 0.703842043876648, 0.08787105977535248, -9.801363945007324) 
(2023-05-26_16-35-59.794, 1685093759.792615, 1369128959.792615, -7.313213166666666, 112.7898465, 26.5, -0.0004339423030614853, 0.014417104423046112, 0.005406738258898258, 0.789535641670227, -0.08423260599374771, -9.724929809570312) 
(2023-05-26_16-35-59.887, 1685093759.885354, 1369128959.885354, -7.313213166666666, 112.7898465, 26.5, -0.003654029220342636, -0.007654989138245583, -0.00368712842464447, 0.8086113929748535, -0.06994187086820602, -9.777628898620605) 
(2023-05-26_16-35-59.964, 1685093759.963131, 1369128959.963131, -7.313213166666666, 112.7898465, 26.5, -0.005348483100533485, 0.016853826120495796, 0.002939881756901741, 0.8086180686950684, -0.0651678517460823, -9.787205696105957) 
(2023-05-26_16-36-00.059, 1685093760.058661, 1369128960.058661, -7.313213166666666, 112.7898465, 26.5, -0.0023373328149318695, 0.0015183929353952408, 0.007272162474691868, 0.7848296165466309, -0.07470089942216873, -9.777605056762695) 
(2023-05-26_16-36-00.155, 1685093760.154183, 1369128960.154183, -7.313213166666666, 112.7898465, 26.5, -0.007842832244932652, 0.01563979685306549, -0.004998338408768177, 0.8180595636367798, -0.0746920183300972, -9.715376853942871) 
(2023-05-26_16-36-00.250, 1685093760.249721, 1369128960.249721, -7.313213166666666, 112.7898465, 26.5, -0.014679990708827972, 0.0027297120541334152, -0.007422607392072678, 0.7800832986831665, -0.07470258325338364, -9.787178993225098) 
(2023-05-26_16-36-00.360, 1685093760.360594, 1369128960.360594, -7.313213166666666, 112.7898465, 26.5, -0.009072019718587399, 0.008238203823566437, 0.005394996143877506, 0.8419071435928345, -0.0030821189284324646, -9.82552433013916) 
(2023-05-26_16-36-00.440, 1685093760.439261, 1369128960.439261, -7.313213166666666, 112.7898465, 26.5, -0.010315335355699062, 0.0125577999278903, -0.004387221299111843, 0.7610881328582764, -0.11292488127946854, -9.78718090057373) 
(2023-05-26_16-36-00.535, 1685093760.532873, 1369128960.532873, -7.313213166666666, 112.7898465, 26.5, -0.001193072646856308, -0.00024907849729061127, -0.01346572209149599, 0.7610206604003906, 0.025662165135145187, -9.83499526977539) 
(2023-05-26_16-36-00.628, 1685093760.627304, 1369128960.627304, -7.313213166666666, 112.7898465, 26.5, -0.009722454473376274, 0.011347687803208828, -0.008652735501527786, 0.7230253219604492, -0.06989022344350815, -9.815852165222168) 
(2023-05-26_16-36-00.724, 1685093760.721857, 1369128960.721857, -7.313213166666666, 112.7898465, 26.6, 0.0013182274997234344, 0.00033378787338733673, -3.333110362291336e-05, 0.7704932689666748, -0.031654879450798035, -9.753615379333496) 
(2023-05-26_16-36-00.817, 1685093760.815833, 1369128960.815833, -7.313213166666666, 112.7898465, 26.6, 0.0007106661796569824, 0.005254318937659264, -0.004933318123221397, 0.727672815322876, 0.030494656413793564, -9.796636581420898) 
(2023-05-26_16-36-00.894, 1685093760.893842, 1369128960.893842, -7.313213166666666, 112.7898465, 26.6, -0.0011359471827745438, -0.0009155701845884323, 0.0030128443613648415, 0.7800630331039429, -0.026915550231933594, -9.806310653686523) 
(2023-05-26_16-36-00.988, 1685093760.987236, 1369128960.987236, -7.313213166666666, 112.7898465, 26.6, -0.0011283531785011292, -0.0003060009330511093, 0.004231358878314495, 0.7181867361068726, 0.035265300422906876, -9.825361251831055) 
(2023-05-26_16-36-01.067, 1685093761.066958, 1369128961.066958, -7.313213166666666, 112.7898465, 26.6, 0.0026756450533866882, 0.017482612282037735, 0.01090031024068594, 1.1418540477752686, -0.27580058574676514, -9.830820083618164) 
(2023-05-26_16-36-01.161, 1685093761.159513, 1369128961.159513, -7.313213166666666, 112.7898465, 26.6, -0.014242014847695827, -0.0340866893529892, -0.004250741563737392, 0.5181797742843628, 0.16454681754112244, -9.743629455566406) 
(2023-05-26_16-36-01.241, 1685093761.238277, 1369128961.238277, -7.313213166666666, 112.7898465, 26.6, 0.00951421819627285, 0.03593771159648895, 0.005983888171613216, 0.9373877048492432, -0.4428875148296356, -9.782793045043945) 
(2023-05-26_16-36-01.336, 1685093761.331857, 1369128961.331857, -7.313213166666666, 112.7898465, 26.6, 0.011744225397706032, -0.004520811140537262, 2.0674429833889008e-05, 0.3136790990829468, 0.15991699695587158, -9.791299819946289) 
(2023-05-26_16-36-01.426, 1685093761.42593, 1369128961.42593, -7.313213166666666, 112.7898465, 26.6, -0.0036182384938001633, -0.0015239566564559937, -0.0024863723665475845, 1.0178117752075195, 0.006378956139087677, -9.734711647033691) 
(2023-05-26_16-36-01.506, 1685093761.505912, 1369128961.505912, -7.313213166666666, 112.7898465, 26.6, 0.01610626094043255, 0.009623336605727673, -0.0036704381927847862, 0.8798962831497192, 0.06858554482460022, -9.820733070373535) 
(2023-05-26_16-36-01.600, 1685093761.600716, 1369128961.600716, -7.313213166666666, 112.7898465, 26.6, -0.02099776826798916, -0.03412710875272751, -0.002444738522171974, 0.9799445867538452, -0.07490994781255722, -9.840092658996582) 
(2023-05-26_16-36-01.679, 1685093761.678918, 1369128961.678918, -7.313213166666666, 112.7898465, 26.6, 0.0019596554338932037, -0.008930278941988945, 0.020136576145887375, 0.20925235748291016, -0.03599826246500015, -9.843987464904785) 
(2023-05-26_16-36-01.759, 1685093761.758267, 1369128961.758267, -7.313213166666666, 112.7898465, 26.6, -0.020759738981723785, 0.009417329914867878, 0.0016868673264980316, 0.8561685085296631, 0.020798880606889725, -9.835104942321777) 
(2023-05-26_16-36-01.852, 1685093761.850876, 1369128961.850876, -7.313213166666666, 112.7898465, 26.6, 0.005636759102344513, -0.001506313681602478, 0.0067010121420025826, 0.36620527505874634, -0.021784551441669464, -9.824997901916504) 
(2023-05-26_16-36-01.930, 1685093761.929439, 1369128961.929439, -7.313213166666666, 112.7898465, 26.6, -0.01641865074634552, 0.026044903323054314, -0.011165801435709, 0.6658545732498169, 0.0018696337938308716, -9.796584129333496) 
(2023-05-26_16-36-02.027, 1685093762.024599, 1369128962.024599, -7.313212833333333, 112.78984616666666, 26.5, -0.0004800688475370407, 0.002748914062976837, 0.009105696342885494, 0.7040280103683472, -0.17977550625801086, -9.75841999053955) 
(2023-05-26_16-36-02.106, 1685093762.10422, 1369128962.10422, -7.313212833333333, 112.78984616666666, 26.5, -0.005367359146475792, 0.0070104170590639114, 0.0115148751065135, 0.8132991790771484, 0.03997640311717987, -9.80151653289795) 
(2023-05-26_16-36-02.198, 1685093762.197626, 1369128962.197626, -7.313212833333333, 112.78984616666666, 26.5, 0.0025911107659339905, 0.003999451175332069, 0.006672012619674206, 0.6706488132476807, -0.06504105776548386, -9.777470588684082) 
(2023-05-26_16-36-02.294, 1685093762.293288, 1369128962.293288, -7.313212833333333, 112.78984616666666, 26.5, -0.0010899025946855545, 0.004590185359120369, 0.007877037860453129, 0.7991493940353394, -0.055629052221775055, -9.835087776184082) 
(2023-05-26_16-36-02.373, 1685093762.371021, 1369128962.371021, -7.313212833333333, 112.78984616666666, 26.5, -0.011534183286130428, 0.01069337036460638, 0.0011063991114497185, 0.6944552659988403, -0.026852190494537354, -9.825371742248535) 
(2023-05-26_16-36-02.467, 1685093762.465769, 1369128962.465769, -7.313212833333333, 112.78984616666666, 26.5, 0.0013789944350719452, 0.005210349336266518, 0.009714790619909763, 0.79438316822052, -0.06995279341936111, -9.815932273864746) 
(2023-05-26_16-36-02.546, 1685093762.545327, 1369128962.545327, -7.313212833333333, 112.78984616666666, 26.5, -0.01030550803989172, 0.013165406882762909, -0.0025584613904356956, 0.623114824295044, -0.06501983851194382, -9.810944557189941) 
(2023-05-26_16-36-02.625, 1685093762.624853, 1369128962.624853, -7.313212833333333, 112.78984616666666, 26.5, -0.0017166491597890854, 0.01014383789151907, -0.003127364907413721, 0.6373056173324585, 0.021008294075727463, -9.806119918823242) 
(2023-05-26_16-36-02.721, 1685093762.720477, 1369128962.720477, -7.313212833333333, 112.78984616666666, 26.5, -0.011551648378372192, 0.006394974887371063, 0.002340700477361679, 0.6753871440887451, 0.030517105013132095, -9.834895133972168) 
(2023-05-26_16-36-02.813, 1685093762.813639, 1369128962.813639, -7.313212833333333, 112.78984616666666, 26.5, 0.009360725060105324, 0.005876427516341209, 0.006080579943954945, 0.7040472030639648, -0.0412352979183197, -9.882868766784668) 
(2023-05-26_16-36-02.893, 1685093762.892644, 1369128962.892644, -7.313212833333333, 112.78984616666666, 26.5, -0.010960179381072521, -0.00036014989018440247, 0.0054158782586455345, 0.7371407747268677, -0.0029318034648895264, -9.72961139678955) 
(2023-05-26_16-36-02.971, 1685093762.971424, 1369128962.971424, -7.313212833333333, 112.78984616666666, 26.5, 0.02310132421553135, 0.014383284375071526, 0.05309122055768967, 0.17692844569683075, -0.8534679412841797, -10.074358940124512) 
(2023-05-26_16-36-03.050, 1685093763.049342, 1369128963.049342, -7.313212833333333, 112.78984616666666, 26.5, -0.10539347678422928, 0.07543198019266129, 0.13175155222415924, 2.772320508956909, -1.2489789724349976, -12.185019493103027) 
(2023-05-26_16-36-03.146, 1685093763.144689, 1369128963.144689, -7.313212833333333, 112.78984616666666, 26.5, -0.08920589834451675, -0.043746672570705414, 0.01869385689496994, 0.4282061755657196, -0.33724597096443176, -9.719886779785156) 
(2023-05-26_16-36-03.225, 1685093763.224316, 1369128963.224316, -7.313212833333333, 112.78984616666666, 26.5, 0.003996804356575012, 0.02665206603705883, 0.023080091923475266, 0.8039027452468872, -0.11296240240335464, -9.787229537963867) 
(2023-05-26_16-36-03.312, 1685093763.302701, 1369128963.302701, -7.313212833333333, 112.78984633333333, 26.6, 0.04596418887376785, -0.03435920178890228, -0.014402596279978752, 0.6466143131256104, 0.16921702027320862, -9.738982200622559) 
(2023-05-26_16-36-03.396, 1685093763.395762, 1369128963.395762, -7.313212833333333, 112.78984633333333, 26.6, -0.003083072602748871, -0.013159571215510368, -0.007938830181956291, 0.9368035793304443, 0.1307411938905716, -9.710597038269043) 
(2023-05-26_16-36-03.474, 1685093763.473726, 1369128963.473726, -7.313212833333333, 112.78984633333333, 26.6, 0.03086438588798046, 0.018322940915822983, -0.01462850347161293, 0.5326911211013794, 0.1070733442902565, -9.911323547363281) 
(2023-05-26_16-36-03.569, 1685093763.568692, 1369128963.568692, -7.313212833333333, 112.78984633333333, 26.6, -0.027005387470126152, -0.007166663184762001, -0.0019438005983829498, 1.1843750476837158, -0.02724369615316391, -9.763659477233887) 
(2023-05-26_16-36-03.648, 1685093763.647681, 1369128963.647681, -7.313212833333333, 112.78984633333333, 26.6, 0.022235656157135963, 0.010903309099376202, -0.010364589281380177, 0.2662305235862732, 0.0070086196064949036, -9.781760215759277) 
(2023-05-26_16-36-03.730, 1685093763.72721, 1369128963.72721, -7.313212833333333, 112.78984633333333, 26.6, -0.014654070138931274, 0.005171917378902435, -0.0037690349854528904, 0.927487850189209, -0.0031308382749557495, -9.782513618469238) 
(2023-05-26_16-36-03.824, 1685093763.823284, 1369128963.823284, -7.313212833333333, 112.78984633333333, 26.6, 0.008125048130750656, 0.013886812143027782, -0.006764698773622513, 0.5895016193389893, 0.0450635626912117, -9.619250297546387) 
(2023-05-26_16-36-03.904, 1685093763.902471, 1369128963.902471, -7.313212833333333, 112.78984633333333, 26.6, -0.006079154089093208, -0.005848648026585579, 0.0030106455087661743, 0.746737003326416, 0.16900938749313354, -9.935476303100586) 
(2023-05-26_16-36-03.997, 1685093763.996584, 1369128963.996584, -7.313212833333333, 112.78984633333333, 26.6, 0.004458753392100334, 0.013848350383341312, -0.0006757453083992004, 1.0087617635726929, -0.2948530614376068, -9.91210651397705) 
(2023-05-26_16-36-04.076, 1685093764.07588, 1369128964.07588, -7.313212833333333, 112.78984633333333, 26.6, -0.029552089050412178, -0.018194658681750298, -0.010460693389177322, 0.5944608449935913, 0.03061728924512863, -9.786905288696289) 
(2023-05-26_16-36-04.156, 1685093764.155396, 1369128964.155396, -7.313212833333333, 112.78984633333333, 26.6, -0.009529651142656803, 0.04383939504623413, -0.0014343885704874992, 0.822884202003479, -0.06517743319272995, -9.78243350982666) 
(2023-05-26_16-36-04.235, 1685093764.234824, 1369128964.234824, -7.313212833333333, 112.78984633333333, 26.6, 0.010373691096901894, -0.03521560877561569, 0.004386551678180695, 0.4992572069168091, 0.0928419828414917, -9.78197193145752) 
(2023-05-26_16-36-04.330, 1685093764.329442, 1369128964.329442, -7.313212833333333, 112.78984633333333, 26.6, -0.007068386301398277, 0.04076877236366272, 0.0034664245322346687, 0.8992797136306763, -0.2803882658481598, -9.864075660705566) 
(2023-05-26_16-36-04.427, 1685093764.424263, 1369128964.424263, -7.313212833333333, 112.78984633333333, 26.6, 0.005486048758029938, -0.023558782413601875, -0.0036021005362272263, 0.456318736076355, 0.2649402916431427, -9.805767059326172) 
(2023-05-26_16-36-04.504, 1685093764.503857, 1369128964.503857, -7.313212833333333, 112.78984633333333, 26.6, -0.01081059779971838, 0.03771582990884781, -0.006911350414156914, 0.9086607694625854, -0.2516587972640991, -9.768274307250977) 
(2023-05-26_16-36-04.584, 1685093764.582779, 1369128964.582779, -7.313212833333333, 112.78984616666666, 26.6, 0.015934793278574944, -0.02966589666903019, 0.004389026202261448, 0.6278079152107239, 0.0018971413373947144, -9.806120872497559) 
(2023-05-26_16-36-04.680, 1685093764.677998, 1369128964.677998, -7.313212833333333, 112.78984616666666, 26.6, -0.01512165181338787, 0.030921850353479385, 0.00041755009442567825, 0.9989027976989746, -0.11788692325353622, -9.744344711303711) 
(2023-05-26_16-36-04.758, 1685093764.75703, 1369128964.75703, -7.313212833333333, 112.78984616666666, 26.6, 0.010490963235497475, -0.010052474215626717, 0.0012544263154268265, 0.7039812803268433, -0.0029787421226501465, -9.854106903076172) 
(2023-05-26_16-36-04.837, 1685093764.835303, 1369128964.835303, -7.313212833333333, 112.78984616666666, 26.6, -0.018907837569713593, 0.010036317631602287, 0.002912127412855625, 0.8371011018753052, -0.04604995995759964, -9.748909950256348) 
(2023-05-26_16-36-04.930, 1685093764.92817, 1369128964.92817, -7.313212833333333, 112.78984616666666, 26.6, 0.012955313548445702, -0.015590814873576164, 0.010434840805828571, 0.5373784303665161, 0.08799653500318527, -9.834704399108887) 
(2023-05-26_16-36-05.009, 1685093765.00767, 1369128965.00767, -7.313212833333333, 112.78984616666666, 26.6, -0.012134579941630363, 0.01745634712278843, -0.004409751854836941, 0.837195634841919, -0.03654584288597107, -9.839908599853516) 
(2023-05-26_16-36-05.105, 1685093765.102838, 1369128965.102838, -7.313212833333333, 112.78984616666666, 26.6, 0.006177838891744614, -0.004519620910286903, -0.009153221733868122, 0.7324986457824707, -0.10331960767507553, -9.753615379333496) 
(2023-05-26_16-36-05.182, 1685093765.181385, 1369128965.181385, -7.313212833333333, 112.78984616666666, 26.6, -0.011530149728059769, 0.011922323144972324, 0.0004922104999423027, 0.8846747875213623, -0.017427057027816772, -9.772894859313965) 
(2023-05-26_16-36-05.261, 1685093765.260934, 1369128965.260934, -7.313212833333333, 112.78984616666666, 26.6, -0.0011900216341018677, -0.005798019468784332, -0.00490454351529479, 0.8134806156158447, -0.16078120470046997, -9.806429862976074) 
(2023-05-26_16-36-05.355, 1685093765.354662, 1369128965.354662, -7.313212833333333, 112.78984616666666, 26.6, -0.009632204659283161, 0.018047068268060684, 0.006581663154065609, 0.6801090240478516, 0.08308568596839905, -9.844447135925293) 
(2023-05-26_16-36-05.432, 1685093765.432714, 1369128965.432714, -7.313212833333333, 112.78984616666666, 26.6, -0.0023538973182439804, -0.0021645426750183105, 0.007894248701632023, 0.6849312782287598, -0.022061049938201904, -9.820568084716797) 
(2023-05-26_16-36-05.528, 1685093765.527493, 1369128965.527493, -7.313212833333333, 112.78984616666666, 26.6, -0.003545289859175682, 0.013201898895204067, -0.0031439759768545628, 0.7514317035675049, 0.030488446354866028, -9.772714614868164) 
(2023-05-26_16-36-05.609, 1685093765.606696, 1369128965.606696, -7.313212833333333, 112.78984616666666, 26.6, -0.0011707935482263565, -0.003349926322698593, -0.003081704955548048, 0.770633339881897, -0.05561865121126175, -9.859004020690918) 
(2023-05-26_16-36-05.688, 1685093765.685217, 1369128965.685217, -7.313212833333333, 112.78984616666666, 26.6, -0.00357755646109581, 0.003370266407728195, 0.0017695501446723938, 0.684819221496582, 0.06877410411834717, -9.79177474975586) 
(2023-05-26_16-36-05.780, 1685093765.779188, 1369128965.779188, -7.313212833333333, 112.78984616666666, 26.6, -0.005404908210039139, 0.0027296897023916245, 0.007256976328790188, 0.7230290174484253, -0.05555937439203262, -9.830212593078613) 
(2023-05-26_16-36-05.859, 1685093765.857348, 1369128965.857348, -7.313212833333333, 112.789846, 26.6, -0.00540928915143013, 0.008896049112081528, -0.0025266623124480247, 0.7228888273239136, 0.07351183146238327, -9.806184768676758) 
(2023-05-26_16-36-05.954, 1685093765.952266, 1369128965.952266, -7.313212833333333, 112.789846, 26.6, -0.008512183092534542, 0.005824653431773186, -0.006189503241330385, 0.7324695587158203, -0.02686212956905365, -9.78709602355957) 
(2023-05-26_16-36-06.032, 1685093766.030708, 1369128966.030708, -7.313212833333333, 112.789846, 26.6, -0.0010809358209371567, 0.007663551717996597, 0.006036440841853619, 0.7467907667160034, -0.06512241810560226, -9.801506042480469) 
(2023-05-26_16-36-06.112, 1685093766.110673, 1369128966.110673, -7.313212833333333, 112.789846, 26.6, -0.005379378795623779, 0.00948599074035883, 0.004794294945895672, 0.622930109500885, 0.05929785966873169, -9.743812561035156) 
(2023-05-26_16-36-06.208, 1685093766.205405, 1369128966.205405, -7.313212833333333, 112.789846, 26.6, -0.0011162515729665756, 0.0033808592706918716, 0.0023887865245342255, 0.8657828569412231, -0.1178140714764595, -9.816041946411133) 
(2023-05-26_16-36-06.303, 1685093766.300046, 1369128966.300046, -7.313212833333333, 112.789846, 26.6, -0.0017931200563907623, -0.0008814148604869843, -0.008584043942391872, 0.5992276072502136, 0.02583032101392746, -9.791704177856445) 
(2023-05-26_16-36-06.395, 1685093766.394578, 1369128966.394578, -7.313212833333333, 112.789846, 26.6, -0.012231647036969662, 0.0015192031860351562, -0.008630156517028809, 0.9038659334182739, -0.16563737392425537, -9.80174446105957) 
(2023-05-26_16-36-06.476, 1685093766.474012, 1369128966.474012, -7.313212833333333, 112.789846, 26.6, -0.002341838553547859, -0.0015588980168104172, 0.010333250276744366, 0.5659297704696655, 0.03541339561343193, -9.801239967346191) 
(2023-05-26_16-36-06.553, 1685093766.552555, 1369128966.552555, -7.313212833333333, 112.789846, 26.6, -0.007208448834717274, 0.013776931911706924, 0.002943003550171852, 0.8848824501037598, -0.13697952032089233, -9.863971710205078) 
(2023-05-26_16-36-06.647, 1685093766.64655, 1369128966.64655, -7.313212833333333, 112.789846, 26.6, -0.003596782684326172, 0.0009221732616424561, -5.3289346396923065e-05, 0.7229948043823242, -0.04120805859565735, -9.811042785644531) 
(2023-05-26_16-36-06.726, 1685093766.726011, 1369128966.726011, -7.313212833333333, 112.789846, 26.6, -0.01093507930636406, 0.007629030384123325, 0.0011185137555003166, 0.8608578443527222, 0.03038666397333145, -9.782418251037598) 
(2023-05-26_16-36-06.805, 1685093766.804598, 1369128966.804598, -7.313212833333333, 112.789846, 26.6, -0.00045732036232948303, 0.0014964044094085693, 0.017042815685272217, 0.5943233966827393, 0.10713332146406174, -9.724592208862305) 
(2023-05-26_16-36-06.898, 1685093766.897709, 1369128966.897709, -7.313212833333333, 112.789846, 26.6, -0.0005073193460702896, 0.0009241290390491486, 0.004229661077260971, 0.8561010360717773, -0.03171823173761368, -9.734552383422852) 
(2023-05-26_16-36-06.995, 1685093766.992567, 1369128966.992567, -7.313212833333333, 112.789846, 26.6, -0.004160569980740547, 0.008269203826785088, 0.0035822484642267227, 0.6469717025756836, -0.08418946713209152, -9.858881950378418) 
(2023-05-26_16-36-07.087, 1685093767.086881, 1369128967.086881, -7.313212833333333, 112.789846, 26.6, -0.008628209121525288, -0.026118332520127296, 0.006728234700858593, 0.8134756088256836, -0.07478154450654984, -9.868643760681152) 
(2023-05-26_16-36-07.167, 1685093767.163814, 1369128967.163814, -7.313212833333333, 112.789846, 26.6, 9.899400174617767e-05, 0.0027834568172693253, -0.0006559640169143677, 0.7039374113082886, -0.13195040822029114, -9.715282440185547) 
(2023-05-26_16-36-07.278, 1685093767.275791, 1369128967.275791, -7.313212833333333, 112.789846, 26.6, 0.00554908812046051, -0.015602966770529747, 0.0024746879935264587, 0.5849784016609192, 0.04971877112984657, -9.829992294311523) 
(2023-05-26_16-36-07.371, 1685093767.369671, 1369128967.369671, -7.313212833333333, 112.789846, 26.6, -0.013683940283954144, -0.03464994579553604, -0.018892381340265274, 0.39020195603370667, -0.10791631788015366, -9.94482135772705) 
(2023-05-26_16-36-07.450, 1685093767.449179, 1369128967.449179, -7.313212833333333, 112.789846, 26.6, 0.02983536384999752, -0.0860784724354744, 0.018047649413347244, 0.7991739511489868, -0.10819593816995621, -9.815960884094238) 
(2023-05-26_16-36-07.543, 1685093767.542698, 1369128967.542698, -7.313212833333333, 112.789846, 26.6, 0.003606880083680153, 0.0856112390756607, 0.0021401047706604004, 1.7412337064743042, -0.2715344727039337, -9.812334060668945) 
(2023-05-26_16-36-07.639, 1685093767.636855, 1369128967.636855, -7.313212833333333, 112.789846, 26.6, 0.026131993159651756, -0.08854931592941284, 0.01743180677294731, 1.1656162738800049, 0.09684471786022186, -10.098844528198242) 
(2023-05-26_16-36-07.749, 1685093767.747379, 1369128967.747379, -7.313212833333333, 112.789846, 26.6, -0.03872482106089592, -0.007808392867445946, -0.011748449876904488, 0.685086727142334, -0.11291962116956711, -9.887681007385254) 
(2023-05-26_16-36-07.843, 1685093767.842052, 1369128967.842052, -7.313212833333333, 112.789846, 26.6, -0.016376206651329994, 0.029088826850056648, -0.0038527371361851692, 0.6519427299499512, -0.2849688231945038, -9.892537117004395) 
(2023-05-26_16-36-07.939, 1685093767.93761, 1369128967.93761, -7.313212833333333, 112.789846, 26.6, -0.0009777657687664032, 0.012502817437052727, 0.027379199862480164, 0.913245439529419, -0.07957581430673599, -9.749015808105469) 
(2023-05-26_16-36-08.031, 1685093768.030713, 1369128968.030713, -7.313212833333333, 112.789846, 26.6, -0.0012598782777786255, -0.022991595789790154, 3.2660551369190216e-05, 0.5659826397895813, -0.11749861389398575, -9.729487419128418) 
(2023-05-26_16-36-08.126, 1685093768.125289, 1369128968.125289, -7.313212833333333, 112.789846, 26.6, -0.0015958938747644424, 0.028525151312351227, 0.00413636676967144, 0.8654733896255493, 0.11167840659618378, -9.72010612487793) 
(2023-05-26_16-36-08.203, 1685093768.203932, 1369128968.203932, -7.313212833333333, 112.789846, 26.6, -0.008030476048588753, -0.03164646774530411, 0.009799464605748653, 0.7658458948135376, 0.05906439945101738, -9.921195983886719) 
(2023-05-26_16-36-08.299, 1685093768.297156, 1369128968.297156, -7.313212833333333, 112.789846, 26.6, -0.00955706462264061, 0.029689742252230644, 0.010815880261361599, 0.9608944654464722, -0.1799890100955963, -9.739550590515137) 
(2023-05-26_16-36-08.378, 1685093768.3767, 1369128968.3767, -7.313212833333333, 112.789846, 26.6, -0.012970034964382648, -0.0310364942997694, 0.0030668191611766815, 0.6943144798278809, 0.0783313661813736, -9.782200813293457) 
(2023-05-26_16-36-08.456, 1685093768.455485, 1369128968.455485, -7.313212833333333, 112.789846, 26.6, -0.010102324187755585, 0.054275497794151306, -0.004521403927356005, 0.5328141450881958, -0.23698091506958008, -9.753471374511719) 
(2023-05-26_16-36-08.540, 1685093768.534054, 1369128968.534054, -7.313212666666667, 112.78984583333333, 26.7, 0.0012635234743356705, -0.018721865490078926, 0.011622481979429722, 0.83687424659729, 0.0830681100487709, -9.648245811462402) 
(2023-05-26_16-36-08.629, 1685093768.628838, 1369128968.628838, -7.313212666666667, 112.78984583333333, 26.7, -0.010235651396214962, 0.03035898506641388, -0.007495666854083538, 0.5946754217147827, -0.1462702453136444, -9.839701652526855) 
(2023-05-26_16-36-08.709, 1685093768.707666, 1369128968.707666, -7.313212666666667, 112.78984583333333, 26.7, 0.004919867962598801, -0.02853466011583805, 0.016549497842788696, 0.8226810693740845, 0.13559187948703766, -9.758360862731934) 
(2023-05-26_16-36-08.805, 1685093768.803247, 1369128968.803247, -7.313212666666667, 112.78984583333333, 26.7, -0.006531583145260811, 0.01803920790553093, 0.01391583401709795, 0.7230434417724609, -0.04123441129922867, -9.854151725769043) 
(2023-05-26_16-36-08.883, 1685093768.88237, 1369128968.88237, -7.313212666666667, 112.78984583333333, 26.7, -0.0005430672317743301, -0.002125682309269905, -0.0012526698410511017, 0.8894402980804443, -0.06998934596776962, -9.739402770996094) 
(2023-05-26_16-36-08.964, 1685093768.961894, 1369128968.961894, -7.313212666666667, 112.78984583333333, 26.7, -0.021976232528686523, 0.016794590279459953, -0.005053993314504623, 0.6755213737487793, -0.07944048196077347, -9.868490219116211) 
(2023-05-26_16-36-09.057, 1685093769.055944, 1369128969.055944, -7.313212666666667, 112.78984583333333, 26.7, -0.0010737702250480652, 0.009506002068519592, 0.005420275963842869, 0.8608269691467285, -0.0269278883934021, -9.710607528686523) 
(2023-05-26_16-36-09.135, 1685093769.133941, 1369128969.133941, -7.313212666666667, 112.78984583333333, 26.7, -0.009653231129050255, 0.014368056319653988, 0.005983258597552776, 0.6232024431228638, -0.10328810662031174, -9.858866691589355) 
(2023-05-26_16-36-09.228, 1685093769.227236, 1369128969.227236, -7.313212666666667, 112.78984583333333, 26.7, 0.010554512962698936, 0.0028328951448202133, 0.0006027445197105408, 0.7514673471450806, -0.0841933861374855, -9.715307235717773) 
(2023-05-26_16-36-09.305, 1685093769.30529, 1369128969.30529, -7.313212666666667, 112.78984583333333, 26.7, -0.010324344038963318, 0.00640321709215641, 0.001734953373670578, 0.6610603332519531, 0.068780317902565, -9.81569766998291) 
(2023-05-26_16-36-09.401, 1685093769.400803, 1369128969.400803, -7.313212666666667, 112.78984583333333, 26.7, 0.0025383271276950836, -0.004581635817885399, 0.0042586615309119225, 0.6611729860305786, -0.0411655530333519, -9.830133438110352) 
(2023-05-26_16-36-09.493, 1685093769.493363, 1369128969.493363, -7.313212666666667, 112.78984583333333, 26.7, -0.005452202633023262, 0.004003789275884628, -0.007392830681055784, 0.7230639457702637, -0.046023063361644745, -9.868523597717285) 
(2023-05-26_16-36-09.574, 1685093769.572021, 1369128969.572021, -7.313212666666667, 112.78984583333333, 26.7, -0.011545853689312935, 0.005773626267910004, 0.004783652722835541, 0.7848250865936279, -0.007811948657035828, -9.825462341308594) 
(2023-05-26_16-36-09.668, 1685093769.666165, 1369128969.666165, -7.313212666666667, 112.78984583333333, 26.7, -0.007221757434308529, 0.019951144233345985, -0.009281612932682037, 0.8227940797805786, -0.03646305948495865, -9.72493839263916) 
(2023-05-26_16-36-09.746, 1685093769.745018, 1369128969.745018, -7.313212666666667, 112.78984583333333, 26.7, -0.00234304741024971, 0.0083021754398942, -0.0037339371629059315, 0.5946182012557983, -0.031576693058013916, -9.877949714660645) 
(2023-05-26_16-36-09.825, 1685093769.823527, 1369128969.823527, -7.313212666666667, 112.78984566666666, 26.8, 0.0007821619510650635, 0.011353942565619946, 0.006031344644725323, 0.7753545045852661, -0.026937730610370636, -9.84941291809082) 
(2023-05-26_16-36-09.920, 1685093769.918859, 1369128969.918859, -7.313212666666667, 112.78984566666666, 26.8, -0.008537796325981617, -0.0070940833538770676, 0.004836332052946091, 0.6419322490692139, 0.0401851087808609, -9.705527305603027) 
(2023-05-26_16-36-09.999, 1685093769.998326, 1369128969.998326, -7.313212666666667, 112.78984566666666, 26.8, 0.006834190338850021, 0.0009932015091180801, -0.0055072675459086895, 0.7230309247970581, -0.026894785463809967, -9.854143142700195) 
(2023-05-26_16-36-10.094, 1685093770.093096, 1369128970.093096, -7.313212666666667, 112.78984566666666, 26.8, -0.007826820947229862, 0.011311959475278854, 0.005389626137912273, 0.780184268951416, -0.10342281311750412, -9.854254722595215) 
(2023-05-26_16-36-10.175, 1685093770.17201, 1369128970.17201, -7.313212666666667, 112.78984566666666, 26.8, -0.005425812676548958, 0.008294330909848213, -0.0061861551366746426, 0.865925669670105, -0.1943330466747284, -9.88314437866211) 
(2023-05-26_16-36-10.253, 1685093770.251582, 1369128970.251582, -7.313212666666667, 112.78984566666666, 26.8, -0.002220652997493744, 0.015589533373713493, 0.019431661814451218, 0.6754827499389648, -0.10330764204263687, -9.815818786621094) 
(2023-05-26_16-36-10.346, 1685093770.34438, 1369128970.34438, -7.313212666666667, 112.78984566666666, 26.8, -0.007232218980789185, 0.005170328542590141, 0.00846282672137022, 0.8751101493835449, 0.0399397537112236, -9.772849082946777) 
(2023-05-26_16-36-10.439, 1685093770.438389, 1369128970.438389, -7.313212666666667, 112.78984566666666, 26.8, -0.005961693823337555, -0.0004057008773088455, 0.02740265429019928, 0.6040521860122681, 0.03534489497542381, -9.858759880065918) 
(2023-05-26_16-36-10.533, 1685093770.532789, 1369128970.532789, -7.313212666666667, 112.78984566666666, 26.8, -0.008428199216723442, 0.011297043412923813, 0.009048842824995518, 0.7038025856018066, -0.0028821155428886414, -9.696044921875) 
(2023-05-26_16-36-10.613, 1685093770.612188, 1369128970.612188, -7.313212666666667, 112.78984566666666, 26.8, -0.001069817692041397, 0.0045725200325250626, 0.013369233347475529, 0.8511898517608643, 0.10691982507705688, -9.705723762512207) 
(2023-05-26_16-36-10.689, 1685093770.68873, 1369128970.68873, -7.313212666666667, 112.78984566666666, 26.8, 0.003712112084031105, -0.0014450699090957642, -0.015274522826075554, 0.8133095502853394, -0.08902455121278763, -9.710591316223145) 
(2023-05-26_16-36-10.784, 1685093770.783669, 1369128970.783669, -7.313212666666667, 112.78984566666666, 26.8, -0.0072945840656757355, 0.014468940906226635, -0.021468738093972206, 0.8134167194366455, -0.05086167901754379, -9.835101127624512) 
(2023-05-26_16-36-10.862, 1685093770.861381, 1369128970.861381, -7.313212666666667, 112.78984566666666, 26.8, -0.010371372103691101, -0.005880434066057205, 0.006046128459274769, 0.7800955772399902, -0.02693311870098114, -9.83504867553711) 
(2023-05-26_16-36-10.959, 1685093770.955042, 1369128970.955042, -7.313212666666667, 112.78984566666666, 26.8, -0.013230563141405582, 0.024727612733840942, 0.021802570670843124, 0.7372519969940186, -0.01254718005657196, -9.820621490478516) 
(2023-05-26_16-36-11.034, 1685093771.033825, 1369128971.033825, -7.313212666666667, 112.78984566666666, 26.8, -0.001788964495062828, 0.00959119014441967, -0.022042959928512573, 0.7752442359924316, 0.049563661217689514, -9.811046600341797) 
(2023-05-26_16-36-11.114, 1685093771.11182, 1369128971.11182, -7.313212833333333, 112.78984533333333, 26.8, -0.0017216652631759644, 0.0021369904279708862, 0.006662194617092609, 0.6612342596054077, -0.05553152412176132, -9.873249053955078) 
